WelcomeContinueKey2.keys,WelcomeContinueKey2.rt,VolumeContinueKey.keys,VolumeContinueKey.rt,ResponseBox.text,trials.thisRepN,trials.thisTrialN,trials.thisN,trials.thisIndex,trials.ran,SoundFiles,Type,participant,session,date,expName,psychopyVersion,OS,frameRate,ExitKey.keys,ExitKey.rt
space,10.721,space,4.223,cough,0,0,0,85,1,Initial/Doubled/Cough_A.wav,Extra,5e8ec3e28ee4fe17502d74eb,001,2021-01-03_23h16.02.196,GuessTheSound,2020.2.10,Win32,60,,
,,,,hair dryer,0,1,1,13,1,Initial/Doubled/HairDryer_A.wav,Doubled,5e8ec3e28ee4fe17502d74eb,001,2021-01-03_23h16.02.196,GuessTheSound,2020.2.10,Win32,60,,
,,,,horse riding,0,2,2,69,1,Test/Foils/Gallop.wav,New,5e8ec3e28ee4fe17502d74eb,001,2021-01-03_23h16.02.196,GuessTheSound,2020.2.10,Win32,60,,
,,,,Elephant,0,3,3,26,1,Initial/NoRepeat/Elephant_A.wav,NoRepeat,5e8ec3e28ee4fe17502d74eb,001,2021-01-03_23h16.02.196,GuessTheSound,2020.2.10,Win32,60,,
,,,,Ice,0,4,4,94,1,Initial/Repeat/IceDrop.wav,Extra,5e8ec3e28ee4fe17502d74eb,001,2021-01-03_23h16.02.196,GuessTheSound,2020.2.10,Win32,60,,
,,,,inflatable,0,5,5,34,1,Initial/NoRepeat/Puff_A.wav,NoRepeat,5e8ec3e28ee4fe17502d74eb,001,2021-01-03_23h16.02.196,GuessTheSound,2020.2.10,Win32,60,,
,,,,sartén,0,6,6,51,1,Initial/Repeat/MetalBang.wav,Repeat,5e8ec3e28ee4fe17502d74eb,001,2021-01-03_23h16.02.196,GuessTheSound,2020.2.10,Win32,60,,
,,,,sawing,0,7,7,35,1,Initial/NoRepeat/Saw_A.wav,NoRepeat,5e8ec3e28ee4fe17502d74eb,001,2021-01-03_23h16.02.196,GuessTheSound,2020.2.10,Win32,60,,
,,,,Raven,0,8,8,87,1,Initial/Repeat/Crow_B.wav,Extra,5e8ec3e28ee4fe17502d74eb,001,2021-01-03_23h16.02.196,GuessTheSound,2020.2.10,Win32,60,,
,,,,Turkey,0,9,9,19,1,Initial/Doubled/Turkey_A.wav,Doubled,5e8ec3e28ee4fe17502d74eb,001,2021-01-03_23h16.02.196,GuessTheSound,2020.2.10,Win32,60,,
,,,,Chirping bird,0,10,10,25,1,Initial/NoRepeat/Eagle_B.wav,NoRepeat,5e8ec3e28ee4fe17502d74eb,001,2021-01-03_23h16.02.196,GuessTheSound,2020.2.10,Win32,60,,
,,,,Cornet,0,11,11,60,1,Test/Foils/Airhorn.wav,New,5e8ec3e28ee4fe17502d74eb,001,2021-01-03_23h16.02.196,GuessTheSound,2020.2.10,Win32,60,,
,,,,Wind,0,12,12,79,1,Test/Foils/Wind_B.wav,New,5e8ec3e28ee4fe17502d74eb,001,2021-01-03_23h16.02.196,GuessTheSound,2020.2.10,Win32,60,,
,,,,Fireworks,0,13,13,28,1,Initial/NoRepeat/Fireworks.wav,NoRepeat,5e8ec3e28ee4fe17502d74eb,001,2021-01-03_23h16.02.196,GuessTheSound,2020.2.10,Win32,60,,
,,,,tap dance,0,14,14,53,1,Initial/Repeat/Pingpong.wav,Repeat,5e8ec3e28ee4fe17502d74eb,001,2021-01-03_23h16.02.196,GuessTheSound,2020.2.10,Win32,60,,
,,,,bugle,0,15,15,58,1,Initial/Repeat/Trumpet_B.wav,Repeat,5e8ec3e28ee4fe17502d74eb,001,2021-01-03_23h16.02.196,GuessTheSound,2020.2.10,Win32,60,,
,,,,roar,0,16,16,12,1,Initial/Doubled/Growl_A.wav,Doubled,5e8ec3e28ee4fe17502d74eb,001,2021-01-03_23h16.02.196,GuessTheSound,2020.2.10,Win32,60,,
,,,,pane of glass,0,17,17,61,1,Test/Foils/Axe.wav,New,5e8ec3e28ee4fe17502d74eb,001,2021-01-03_23h16.02.196,GuessTheSound,2020.2.10,Win32,60,,
,,,,Train,0,18,18,76,1,Test/Foils/Steam.wav,New,5e8ec3e28ee4fe17502d74eb,001,2021-01-03_23h16.02.196,GuessTheSound,2020.2.10,Win32,60,,
,,,,Frog,0,19,19,65,1,Test/Foils/Bullfrog.wav,New,5e8ec3e28ee4fe17502d74eb,001,2021-01-03_23h16.02.196,GuessTheSound,2020.2.10,Win32,60,,
,,,,Siren,0,20,20,11,1,Initial/Doubled/Siren_A.wav,Doubled,5e8ec3e28ee4fe17502d74eb,001,2021-01-03_23h16.02.196,GuessTheSound,2020.2.10,Win32,60,,
,,,,mosquito,0,21,21,32,1,Initial/NoRepeat/Mosquito_B.wav,NoRepeat,5e8ec3e28ee4fe17502d74eb,001,2021-01-03_23h16.02.196,GuessTheSound,2020.2.10,Win32,60,,
,,,,toilet,0,22,22,23,1,Initial/NoRepeat/Toilet_B.wav,NoRepeat,5e8ec3e28ee4fe17502d74eb,001,2021-01-03_23h16.02.196,GuessTheSound,2020.2.10,Win32,60,,
,,,,straw,0,23,23,49,1,Initial/Repeat/Pour.wav,Repeat,5e8ec3e28ee4fe17502d74eb,001,2021-01-03_23h16.02.196,GuessTheSound,2020.2.10,Win32,60,,
,,,,drip,0,24,24,24,1,Initial/NoRepeat/Droplet_B.wav,NoRepeat,5e8ec3e28ee4fe17502d74eb,001,2021-01-03_23h16.02.196,GuessTheSound,2020.2.10,Win32,60,,
,,,,serpent,0,25,25,44,1,Initial/Repeat/Cicade.wav,Repeat,5e8ec3e28ee4fe17502d74eb,001,2021-01-03_23h16.02.196,GuessTheSound,2020.2.10,Win32,60,,
,,,,water,0,26,26,4,1,Initial/Doubled/Coin_A.wav,Doubled,5e8ec3e28ee4fe17502d74eb,001,2021-01-03_23h16.02.196,GuessTheSound,2020.2.10,Win32,60,,
,,,,fill glass,0,27,27,57,1,Initial/Repeat/Stir.wav,Repeat,5e8ec3e28ee4fe17502d74eb,001,2021-01-03_23h16.02.196,GuessTheSound,2020.2.10,Win32,60,,
,,,,hiss,0,28,28,50,1,Initial/Repeat/ManWhistle.wav,Repeat,5e8ec3e28ee4fe17502d74eb,001,2021-01-03_23h16.02.196,GuessTheSound,2020.2.10,Win32,60,,
,,,,samba,0,29,29,46,1,Initial/Repeat/Drum_B.wav,Repeat,5e8ec3e28ee4fe17502d74eb,001,2021-01-03_23h16.02.196,GuessTheSound,2020.2.10,Win32,60,,
,,,,Cow,0,30,30,22,1,Initial/NoRepeat/Cow.wav,NoRepeat,5e8ec3e28ee4fe17502d74eb,001,2021-01-03_23h16.02.196,GuessTheSound,2020.2.10,Win32,60,,
,,,,Duck,0,31,31,89,1,Initial/NoRepeat/Duck_A.wav,Extra,5e8ec3e28ee4fe17502d74eb,001,2021-01-03_23h16.02.196,GuessTheSound,2020.2.10,Win32,60,,
,,,,Applause,0,32,32,3,1,Initial/Doubled/Clap_A.wav,Doubled,5e8ec3e28ee4fe17502d74eb,001,2021-01-03_23h16.02.196,GuessTheSound,2020.2.10,Win32,60,,
,,,,Ignition,0,33,33,81,1,Initial/Doubled/CarStart_A.wav,Extra,5e8ec3e28ee4fe17502d74eb,001,2021-01-03_23h16.02.196,GuessTheSound,2020.2.10,Win32,60,,
,,,,rooster,0,34,34,96,1,Initial/NoRepeat/Rooster_B.wav,Extra,5e8ec3e28ee4fe17502d74eb,001,2021-01-03_23h16.02.196,GuessTheSound,2020.2.10,Win32,60,,
,,,,Motorcycle,0,35,35,21,1,Initial/NoRepeat/Chainsaw_A.wav,NoRepeat,5e8ec3e28ee4fe17502d74eb,001,2021-01-03_23h16.02.196,GuessTheSound,2020.2.10,Win32,60,,
,,,,Calf,0,36,36,30,1,Initial/NoRepeat/Goat_B.wav,NoRepeat,5e8ec3e28ee4fe17502d74eb,001,2021-01-03_23h16.02.196,GuessTheSound,2020.2.10,Win32,60,,
,,,,Plane,0,37,37,40,1,Initial/Repeat/Airplane_B.wav,Repeat,5e8ec3e28ee4fe17502d74eb,001,2021-01-03_23h16.02.196,GuessTheSound,2020.2.10,Win32,60,,
,,,,Crispy potato,0,38,38,83,1,Initial/Doubled/Chomp_A.wav,Extra,5e8ec3e28ee4fe17502d74eb,001,2021-01-03_23h16.02.196,GuessTheSound,2020.2.10,Win32,60,,
,,,,Guitar,0,39,39,91,1,Initial/Doubled/Guitar_A.wav,Extra,5e8ec3e28ee4fe17502d74eb,001,2021-01-03_23h16.02.196,GuessTheSound,2020.2.10,Win32,60,,
,,,,Ocean,0,40,40,18,1,Initial/Doubled/Surf_A.wav,Doubled,5e8ec3e28ee4fe17502d74eb,001,2021-01-03_23h16.02.196,GuessTheSound,2020.2.10,Win32,60,,
,,,,Bird,0,41,41,62,1,Test/Foils/Bird.wav,New,5e8ec3e28ee4fe17502d74eb,001,2021-01-03_23h16.02.196,GuessTheSound,2020.2.10,Win32,60,,
,,,,Peel off tape,0,42,42,95,1,Test/Foils/PaperRip.wav,Extra,5e8ec3e28ee4fe17502d74eb,001,2021-01-03_23h16.02.196,GuessTheSound,2020.2.10,Win32,60,,
,,,,Seal,0,43,43,55,1,Initial/Repeat/Sealion.wav,Repeat,5e8ec3e28ee4fe17502d74eb,001,2021-01-03_23h16.02.196,GuessTheSound,2020.2.10,Win32,60,,
,,,,Saxophone,0,44,44,36,1,Initial/NoRepeat/Sax_A.wav,NoRepeat,5e8ec3e28ee4fe17502d74eb,001,2021-01-03_23h16.02.196,GuessTheSound,2020.2.10,Win32,60,,
,,,,Hammer,0,45,45,98,1,Initial/Doubled/Train_A.wav,Extra,5e8ec3e28ee4fe17502d74eb,001,2021-01-03_23h16.02.196,GuessTheSound,2020.2.10,Win32,60,,
,,,,Hyena,0,46,46,72,1,Test/Foils/Horse.wav,New,5e8ec3e28ee4fe17502d74eb,001,2021-01-03_23h16.02.196,GuessTheSound,2020.2.10,Win32,60,,
,,,,Piano,0,47,47,9,1,Initial/Doubled/Piano_A.wav,Doubled,5e8ec3e28ee4fe17502d74eb,001,2021-01-03_23h16.02.196,GuessTheSound,2020.2.10,Win32,60,,
,,,,Camera,0,48,48,80,1,Test/Foils/Camera.wav,Extra,5e8ec3e28ee4fe17502d74eb,001,2021-01-03_23h16.02.196,GuessTheSound,2020.2.10,Win32,60,,
,,,,Bell,0,49,49,2,1,Initial/Doubled/Chime_A.wav,Doubled,5e8ec3e28ee4fe17502d74eb,001,2021-01-03_23h16.02.196,GuessTheSound,2020.2.10,Win32,60,,
,,,,I dont know,0,50,50,84,1,Initial/Doubled/Clock_A.wav,Extra,5e8ec3e28ee4fe17502d74eb,001,2021-01-03_23h16.02.196,GuessTheSound,2020.2.10,Win32,60,,
,,,,Sneeze,0,51,51,56,1,Initial/Repeat/Sneeze_B.wav,Repeat,5e8ec3e28ee4fe17502d74eb,001,2021-01-03_23h16.02.196,GuessTheSound,2020.2.10,Win32,60,,
,,,,To nail,0,52,52,31,1,Initial/NoRepeat/Hammer_A.wav,NoRepeat,5e8ec3e28ee4fe17502d74eb,001,2021-01-03_23h16.02.196,GuessTheSound,2020.2.10,Win32,60,,
,,,,Snore,0,53,53,38,1,Initial/NoRepeat/Snore_B.wav,NoRepeat,5e8ec3e28ee4fe17502d74eb,001,2021-01-03_23h16.02.196,GuessTheSound,2020.2.10,Win32,60,,
,,,,Helicopter,0,54,54,93,1,Initial/NoRepeat/Helicopter_A.wav,Extra,5e8ec3e28ee4fe17502d74eb,001,2021-01-03_23h16.02.196,GuessTheSound,2020.2.10,Win32,60,,
,,,,pipe organ,0,55,55,43,1,Initial/Repeat/Cello.wav,Repeat,5e8ec3e28ee4fe17502d74eb,001,2021-01-03_23h16.02.196,GuessTheSound,2020.2.10,Win32,60,,
,,,,bells,0,56,56,33,1,Initial/NoRepeat/MusicBox_A.wav,NoRepeat,5e8ec3e28ee4fe17502d74eb,001,2021-01-03_23h16.02.196,GuessTheSound,2020.2.10,Win32,60,,
,,,,Chicken,0,57,57,1,1,Initial/Doubled/Chicken_A.wav,Doubled,5e8ec3e28ee4fe17502d74eb,001,2021-01-03_23h16.02.196,GuessTheSound,2020.2.10,Win32,60,,
,,,,Keyboard,0,58,58,77,1,Test/Foils/Typing.wav,New,5e8ec3e28ee4fe17502d74eb,001,2021-01-03_23h16.02.196,GuessTheSound,2020.2.10,Win32,60,,
,,,,I dont know,0,59,59,41,1,Initial/Repeat/Bat.wav,Repeat,5e8ec3e28ee4fe17502d74eb,001,2021-01-03_23h16.02.196,GuessTheSound,2020.2.10,Win32,60,,
,,,,,,,,,,,,5e8ec3e28ee4fe17502d74eb,001,2021-01-03_23h16.02.196,GuessTheSound,2020.2.10,Win32,60,space,21.468
