WelcomeContinueKey2.keys,WelcomeContinueKey2.rt,VolumeContinueKey.keys,VolumeContinueKey.rt,ResponseBox.text,trials.thisRepN,trials.thisTrialN,trials.thisN,trials.thisIndex,trials.ran,SoundFiles,Type,participant,session,date,expName,psychopyVersion,OS,frameRate,ExitKey.keys,ExitKey.rt
space,9.698445,space,3.16656,sneeze,0,0,0,56,1,Initial/Repeat/Sneeze_B.wav,Repeat,5fbabe8f3bdaedb1377b0068,001,2021-01-01_18h01.53.805,GuessTheSound,2020.2.10,Win32,60,,
,,,,dripping water,0,1,1,0,1,Initial/Doubled/Bubbles_A.wav,Doubled,5fbabe8f3bdaedb1377b0068,001,2021-01-01_18h01.53.805,GuessTheSound,2020.2.10,Win32,60,,
,,,,ping pong,0,2,2,53,1,Initial/Repeat/Pingpong.wav,Repeat,5fbabe8f3bdaedb1377b0068,001,2021-01-01_18h01.53.805,GuessTheSound,2020.2.10,Win32,60,,
,,,,an old bell,0,3,3,51,1,Initial/Repeat/MetalBang.wav,Repeat,5fbabe8f3bdaedb1377b0068,001,2021-01-01_18h01.53.805,GuessTheSound,2020.2.10,Win32,60,,
,,,,beep,0,4,4,8,1,Initial/Doubled/Doorchime_A.wav,Doubled,5fbabe8f3bdaedb1377b0068,001,2021-01-01_18h01.53.805,GuessTheSound,2020.2.10,Win32,60,,
,,,,rake,0,5,5,67,1,Test/Foils/Curtain.wav,New,5fbabe8f3bdaedb1377b0068,001,2021-01-01_18h01.53.805,GuessTheSound,2020.2.10,Win32,60,,
,,,,printer,0,6,6,54,1,Initial/Repeat/Printer.wav,Repeat,5fbabe8f3bdaedb1377b0068,001,2021-01-01_18h01.53.805,GuessTheSound,2020.2.10,Win32,60,,
,,,,eagle,0,7,7,25,1,Initial/NoRepeat/Eagle_B.wav,NoRepeat,5fbabe8f3bdaedb1377b0068,001,2021-01-01_18h01.53.805,GuessTheSound,2020.2.10,Win32,60,,
,,,,eating lays,0,8,8,83,1,Initial/Doubled/Chomp_A.wav,Extra,5fbabe8f3bdaedb1377b0068,001,2021-01-01_18h01.53.805,GuessTheSound,2020.2.10,Win32,60,,
,,,,animal,0,9,9,55,1,Initial/Repeat/Sealion.wav,Repeat,5fbabe8f3bdaedb1377b0068,001,2021-01-01_18h01.53.805,GuessTheSound,2020.2.10,Win32,60,,
,,,,bee,0,10,10,32,1,Initial/NoRepeat/Mosquito_B.wav,NoRepeat,5fbabe8f3bdaedb1377b0068,001,2021-01-01_18h01.53.805,GuessTheSound,2020.2.10,Win32,60,,
,,,,pouring water,0,11,11,49,1,Initial/Repeat/Pour.wav,Repeat,5fbabe8f3bdaedb1377b0068,001,2021-01-01_18h01.53.805,GuessTheSound,2020.2.10,Win32,60,,
,,,,classic music,0,12,12,9,1,Initial/Doubled/Piano_A.wav,Doubled,5fbabe8f3bdaedb1377b0068,001,2021-01-01_18h01.53.805,GuessTheSound,2020.2.10,Win32,60,,
,,,,rooster,0,13,13,96,1,Initial/NoRepeat/Rooster_B.wav,Extra,5fbabe8f3bdaedb1377b0068,001,2021-01-01_18h01.53.805,GuessTheSound,2020.2.10,Win32,60,,
,,,,howl of a wolf,0,14,14,48,1,Initial/Repeat/Howl.wav,Repeat,5fbabe8f3bdaedb1377b0068,001,2021-01-01_18h01.53.805,GuessTheSound,2020.2.10,Win32,60,,
,,,,typing on keyboard,0,15,15,77,1,Test/Foils/Typing.wav,New,5fbabe8f3bdaedb1377b0068,001,2021-01-01_18h01.53.805,GuessTheSound,2020.2.10,Win32,60,,
,,,,dripping water on water,0,16,16,24,1,Initial/NoRepeat/Droplet_B.wav,NoRepeat,5fbabe8f3bdaedb1377b0068,001,2021-01-01_18h01.53.805,GuessTheSound,2020.2.10,Win32,60,,
,,,,bowling,0,17,17,63,1,Test/Foils/Bowlingpins.wav,New,5fbabe8f3bdaedb1377b0068,001,2021-01-01_18h01.53.805,GuessTheSound,2020.2.10,Win32,60,,
,,,,,0,18,18,47,1,Initial/Repeat/Cup.wav,Repeat,5fbabe8f3bdaedb1377b0068,001,2021-01-01_18h01.53.805,GuessTheSound,2020.2.10,Win32,60,,
,,,,Christmas bells,0,19,19,37,1,Initial/NoRepeat/Sleighbells_B.wav,NoRepeat,5fbabe8f3bdaedb1377b0068,001,2021-01-01_18h01.53.805,GuessTheSound,2020.2.10,Win32,60,,
,,,,,0,20,20,92,1,Test/Foils/Gulp.wav,Extra,5fbabe8f3bdaedb1377b0068,001,2021-01-01_18h01.53.805,GuessTheSound,2020.2.10,Win32,60,,
,,,,horse,0,21,21,72,1,Test/Foils/Horse.wav,New,5fbabe8f3bdaedb1377b0068,001,2021-01-01_18h01.53.805,GuessTheSound,2020.2.10,Win32,60,,
,,,,rubber toy,0,22,22,34,1,Initial/NoRepeat/Puff_A.wav,NoRepeat,5fbabe8f3bdaedb1377b0068,001,2021-01-01_18h01.53.805,GuessTheSound,2020.2.10,Win32,60,,
,,,,samba music,0,23,23,46,1,Initial/Repeat/Drum_B.wav,Repeat,5fbabe8f3bdaedb1377b0068,001,2021-01-01_18h01.53.805,GuessTheSound,2020.2.10,Win32,60,,
,,,,ambulance sirens,0,24,24,11,1,Initial/Doubled/Siren_A.wav,Doubled,5fbabe8f3bdaedb1377b0068,001,2021-01-01_18h01.53.805,GuessTheSound,2020.2.10,Win32,60,,
,,,,drinking with noise,0,25,25,97,1,Test/Foils/Slurp.wav,Extra,5fbabe8f3bdaedb1377b0068,001,2021-01-01_18h01.53.805,GuessTheSound,2020.2.10,Win32,60,,
,,,,light plane,0,26,26,40,1,Initial/Repeat/Airplane_B.wav,Repeat,5fbabe8f3bdaedb1377b0068,001,2021-01-01_18h01.53.805,GuessTheSound,2020.2.10,Win32,60,,
,,,,helicopter,0,27,27,93,1,Initial/NoRepeat/Helicopter_A.wav,Extra,5fbabe8f3bdaedb1377b0068,001,2021-01-01_18h01.53.805,GuessTheSound,2020.2.10,Win32,60,,
,,,,bells,0,28,28,33,1,Initial/NoRepeat/MusicBox_A.wav,NoRepeat,5fbabe8f3bdaedb1377b0068,001,2021-01-01_18h01.53.805,GuessTheSound,2020.2.10,Win32,60,,
,,,,walking on the floor,0,29,29,29,1,Initial/NoRepeat/Footsteps_B.wav,NoRepeat,5fbabe8f3bdaedb1377b0068,001,2021-01-01_18h01.53.805,GuessTheSound,2020.2.10,Win32,60,,
,,,,barks,0,30,30,7,1,Initial/Doubled/Dog_A.wav,Doubled,5fbabe8f3bdaedb1377b0068,001,2021-01-01_18h01.53.805,GuessTheSound,2020.2.10,Win32,60,,
,,,,birthday horn,0,31,31,74,1,Test/Foils/PartyHorn.wav,New,5fbabe8f3bdaedb1377b0068,001,2021-01-01_18h01.53.805,GuessTheSound,2020.2.10,Win32,60,,
,,,,violet,0,32,32,70,1,Test/Foils/Harmonica.wav,New,5fbabe8f3bdaedb1377b0068,001,2021-01-01_18h01.53.805,GuessTheSound,2020.2.10,Win32,60,,
,,,,baby murmurs,0,33,33,20,1,Initial/NoRepeat/Baby_B.wav,NoRepeat,5fbabe8f3bdaedb1377b0068,001,2021-01-01_18h01.53.805,GuessTheSound,2020.2.10,Win32,60,,
,,,,,0,34,34,44,1,Initial/Repeat/Cicade.wav,Repeat,5fbabe8f3bdaedb1377b0068,001,2021-01-01_18h01.53.805,GuessTheSound,2020.2.10,Win32,60,,
,,,,flushing the toilet,0,35,35,23,1,Initial/NoRepeat/Toilet_B.wav,NoRepeat,5fbabe8f3bdaedb1377b0068,001,2021-01-01_18h01.53.805,GuessTheSound,2020.2.10,Win32,60,,
,,,,gargle water,0,36,36,10,1,Initial/Doubled/Gargle_A.wav,Doubled,5fbabe8f3bdaedb1377b0068,001,2021-01-01_18h01.53.805,GuessTheSound,2020.2.10,Win32,60,,
,,,,old ringtone,0,37,37,75,1,Test/Foils/Robot.wav,New,5fbabe8f3bdaedb1377b0068,001,2021-01-01_18h01.53.805,GuessTheSound,2020.2.10,Win32,60,,
,,,,guitar fingering,0,38,38,91,1,Initial/Doubled/Guitar_A.wav,Extra,5fbabe8f3bdaedb1377b0068,001,2021-01-01_18h01.53.805,GuessTheSound,2020.2.10,Win32,60,,
,,,,trumpet of the king,0,39,39,58,1,Initial/Repeat/Trumpet_B.wav,Repeat,5fbabe8f3bdaedb1377b0068,001,2021-01-01_18h01.53.805,GuessTheSound,2020.2.10,Win32,60,,
,,,,heart beat,0,40,40,71,1,Test/Foils/Heartbeat.wav,New,5fbabe8f3bdaedb1377b0068,001,2021-01-01_18h01.53.805,GuessTheSound,2020.2.10,Win32,60,,
,,,,old train is coming,0,41,41,76,1,Test/Foils/Steam.wav,New,5fbabe8f3bdaedb1377b0068,001,2021-01-01_18h01.53.805,GuessTheSound,2020.2.10,Win32,60,,
,,,,tap,0,42,42,27,1,Initial/NoRepeat/Faucet_A.wav,NoRepeat,5fbabe8f3bdaedb1377b0068,001,2021-01-01_18h01.53.805,GuessTheSound,2020.2.10,Win32,60,,
,,,,old house phone ring,0,43,43,52,1,Initial/Repeat/Phone_A.wav,Repeat,5fbabe8f3bdaedb1377b0068,001,2021-01-01_18h01.53.805,GuessTheSound,2020.2.10,Win32,60,,
,,,,drums cymbals,0,44,44,45,1,Initial/Repeat/Cymbal_A.wav,Repeat,5fbabe8f3bdaedb1377b0068,001,2021-01-01_18h01.53.805,GuessTheSound,2020.2.10,Win32,60,,
,,,,,0,45,45,78,1,Test/Foils/Cards.wav,New,5fbabe8f3bdaedb1377b0068,001,2021-01-01_18h01.53.805,GuessTheSound,2020.2.10,Win32,60,,
,,,,coghing,0,46,46,85,1,Initial/Doubled/Cough_A.wav,Extra,5fbabe8f3bdaedb1377b0068,001,2021-01-01_18h01.53.805,GuessTheSound,2020.2.10,Win32,60,,
,,,,,0,47,47,57,1,Initial/Repeat/Stir.wav,Repeat,5fbabe8f3bdaedb1377b0068,001,2021-01-01_18h01.53.805,GuessTheSound,2020.2.10,Win32,60,,
,,,,cop whistle,0,48,48,59,1,Initial/Repeat/Whistle_A.wav,Repeat,5fbabe8f3bdaedb1377b0068,001,2021-01-01_18h01.53.805,GuessTheSound,2020.2.10,Win32,60,,
,,,,clapping,0,49,49,3,1,Initial/Doubled/Clap_A.wav,Doubled,5fbabe8f3bdaedb1377b0068,001,2021-01-01_18h01.53.805,GuessTheSound,2020.2.10,Win32,60,,
,,,,toad,0,50,50,5,1,Initial/Doubled/Cricket_A.wav,Doubled,5fbabe8f3bdaedb1377b0068,001,2021-01-01_18h01.53.805,GuessTheSound,2020.2.10,Win32,60,,
,,,,lawn mower,0,51,51,21,1,Initial/NoRepeat/Chainsaw_A.wav,NoRepeat,5fbabe8f3bdaedb1377b0068,001,2021-01-01_18h01.53.805,GuessTheSound,2020.2.10,Win32,60,,
,,,,racing cars announcment,0,52,52,60,1,Test/Foils/Airhorn.wav,New,5fbabe8f3bdaedb1377b0068,001,2021-01-01_18h01.53.805,GuessTheSound,2020.2.10,Win32,60,,
,,,,donkey,0,53,53,68,1,Test/Foils/Donkey.wav,New,5fbabe8f3bdaedb1377b0068,001,2021-01-01_18h01.53.805,GuessTheSound,2020.2.10,Win32,60,,
,,,,frog,0,54,54,65,1,Test/Foils/Bullfrog.wav,New,5fbabe8f3bdaedb1377b0068,001,2021-01-01_18h01.53.805,GuessTheSound,2020.2.10,Win32,60,,
,,,,crow,0,55,55,87,1,Initial/Repeat/Crow_B.wav,Extra,5fbabe8f3bdaedb1377b0068,001,2021-01-01_18h01.53.805,GuessTheSound,2020.2.10,Win32,60,,
,,,,owl,0,56,56,16,1,Initial/Doubled/Owl_A.wav,Doubled,5fbabe8f3bdaedb1377b0068,001,2021-01-01_18h01.53.805,GuessTheSound,2020.2.10,Win32,60,,
,,,,winds,0,57,57,79,1,Test/Foils/Wind_B.wav,New,5fbabe8f3bdaedb1377b0068,001,2021-01-01_18h01.53.805,GuessTheSound,2020.2.10,Win32,60,,
,,,,,0,58,58,88,1,Test/Foils/DialTone.wav,Extra,5fbabe8f3bdaedb1377b0068,001,2021-01-01_18h01.53.805,GuessTheSound,2020.2.10,Win32,60,,
,,,,human whistle,0,59,59,50,1,Initial/Repeat/ManWhistle.wav,Repeat,5fbabe8f3bdaedb1377b0068,001,2021-01-01_18h01.53.805,GuessTheSound,2020.2.10,Win32,60,,
,,,,,,,,,,,,5fbabe8f3bdaedb1377b0068,001,2021-01-01_18h01.53.805,GuessTheSound,2020.2.10,Win32,60,space,11.806955
