WelcomeContinueKey2.keys,WelcomeContinueKey2.rt,VolumeContinueKey.keys,VolumeContinueKey.rt,ResponseBox.text,trials.thisRepN,trials.thisTrialN,trials.thisN,trials.thisIndex,trials.ran,SoundFiles,Type,participant,session,date,expName,psychopyVersion,OS,frameRate,ExitKey.keys,ExitKey.rt
space,6.994235,space,4.87058,someone coughing,0,0,0,55,1,Initial/Repeat/Sealion.wav,Repeat,5e5d0bb3afebf1000ad9a903,001,2021-01-01_15h58.43.467,GuessTheSound,2020.2.10,Win32,60,,
,,,,a saw cutting something,0,1,1,35,1,Initial/NoRepeat/Saw_A.wav,NoRepeat,5e5d0bb3afebf1000ad9a903,001,2021-01-01_15h58.43.467,GuessTheSound,2020.2.10,Win32,60,,
,,,,someone coughing,0,2,2,85,1,Initial/Doubled/Cough_A.wav,Extra,5e5d0bb3afebf1000ad9a903,001,2021-01-01_15h58.43.467,GuessTheSound,2020.2.10,Win32,60,,
,,,,hairdryer,0,3,3,13,1,Initial/Doubled/HairDryer_A.wav,Doubled,5e5d0bb3afebf1000ad9a903,001,2021-01-01_15h58.43.467,GuessTheSound,2020.2.10,Win32,60,,
,,,,something made of metal falling,0,4,4,51,1,Initial/Repeat/MetalBang.wav,Repeat,5e5d0bb3afebf1000ad9a903,001,2021-01-01_15h58.43.467,GuessTheSound,2020.2.10,Win32,60,,
,,,,trumpets,0,5,5,58,1,Initial/Repeat/Trumpet_B.wav,Repeat,5e5d0bb3afebf1000ad9a903,001,2021-01-01_15h58.43.467,GuessTheSound,2020.2.10,Win32,60,,
,,,,a car engine starting,0,6,6,81,1,Initial/Doubled/CarStart_A.wav,Extra,5e5d0bb3afebf1000ad9a903,001,2021-01-01_15h58.43.467,GuessTheSound,2020.2.10,Win32,60,,
,,,,,0,7,7,61,1,Test/Foils/Axe.wav,New,5e5d0bb3afebf1000ad9a903,001,2021-01-01_15h58.43.467,GuessTheSound,2020.2.10,Win32,60,,
,,,,sound of fire with wind,0,8,8,71,1,Test/Foils/Heartbeat.wav,New,5e5d0bb3afebf1000ad9a903,001,2021-01-01_15h58.43.467,GuessTheSound,2020.2.10,Win32,60,,
,,,,a horse,0,9,9,97,1,Test/Foils/Slurp.wav,Extra,5e5d0bb3afebf1000ad9a903,001,2021-01-01_15h58.43.467,GuessTheSound,2020.2.10,Win32,60,,
,,,,shaking a box of matches,0,10,10,64,1,Test/Foils/Brushing.wav,New,5e5d0bb3afebf1000ad9a903,001,2021-01-01_15h58.43.467,GuessTheSound,2020.2.10,Win32,60,,
,,,,tape machine,0,11,11,54,1,Initial/Repeat/Printer.wav,Repeat,5e5d0bb3afebf1000ad9a903,001,2021-01-01_15h58.43.467,GuessTheSound,2020.2.10,Win32,60,,
,,,,sneeze,0,12,12,56,1,Initial/Repeat/Sneeze_B.wav,Repeat,5e5d0bb3afebf1000ad9a903,001,2021-01-01_15h58.43.467,GuessTheSound,2020.2.10,Win32,60,,
,,,,a cat,0,13,13,82,1,Initial/Doubled/Cat_A.wav,Extra,5e5d0bb3afebf1000ad9a903,001,2021-01-01_15h58.43.467,GuessTheSound,2020.2.10,Win32,60,,
,,,,helicopter,0,14,14,93,1,Initial/NoRepeat/Helicopter_A.wav,Extra,5e5d0bb3afebf1000ad9a903,001,2021-01-01_15h58.43.467,GuessTheSound,2020.2.10,Win32,60,,
,,,,going through a deck of cards,0,15,15,78,1,Test/Foils/Cards.wav,New,5e5d0bb3afebf1000ad9a903,001,2021-01-01_15h58.43.467,GuessTheSound,2020.2.10,Win32,60,,
,,,,baby yelling,0,16,16,20,1,Initial/NoRepeat/Baby_B.wav,NoRepeat,5e5d0bb3afebf1000ad9a903,001,2021-01-01_15h58.43.467,GuessTheSound,2020.2.10,Win32,60,,
,,,,coins falling into a glass,0,17,17,94,1,Initial/Repeat/IceDrop.wav,Extra,5e5d0bb3afebf1000ad9a903,001,2021-01-01_15h58.43.467,GuessTheSound,2020.2.10,Win32,60,,
,,,,bubbles being released underwater,0,18,18,0,1,Initial/Doubled/Bubbles_A.wav,Doubled,5e5d0bb3afebf1000ad9a903,001,2021-01-01_15h58.43.467,GuessTheSound,2020.2.10,Win32,60,,
,,,,,0,19,19,46,1,Initial/Repeat/Drum_B.wav,Repeat,5e5d0bb3afebf1000ad9a903,001,2021-01-01_15h58.43.467,GuessTheSound,2020.2.10,Win32,60,,
,,,,party whistle,0,20,20,74,1,Test/Foils/PartyHorn.wav,New,5e5d0bb3afebf1000ad9a903,001,2021-01-01_15h58.43.467,GuessTheSound,2020.2.10,Win32,60,,
,,,,crickets,0,21,21,5,1,Initial/Doubled/Cricket_A.wav,Doubled,5e5d0bb3afebf1000ad9a903,001,2021-01-01_15h58.43.467,GuessTheSound,2020.2.10,Win32,60,,
,,,,a door squeaking,0,22,22,86,1,Initial/Doubled/Creak.wav,Extra,5e5d0bb3afebf1000ad9a903,001,2021-01-01_15h58.43.467,GuessTheSound,2020.2.10,Win32,60,,
,,,,duck,0,23,23,89,1,Initial/NoRepeat/Duck_A.wav,Extra,5e5d0bb3afebf1000ad9a903,001,2021-01-01_15h58.43.467,GuessTheSound,2020.2.10,Win32,60,,
,,,,,0,24,24,90,1,Initial/Doubled/Geese_A.wav,Extra,5e5d0bb3afebf1000ad9a903,001,2021-01-01_15h58.43.467,GuessTheSound,2020.2.10,Win32,60,,
,,,,plates in the drums,0,25,25,45,1,Initial/Repeat/Cymbal_A.wav,Repeat,5e5d0bb3afebf1000ad9a903,001,2021-01-01_15h58.43.467,GuessTheSound,2020.2.10,Win32,60,,
,,,,phone vibrating,0,26,26,66,1,Test/Foils/Buzz.wav,New,5e5d0bb3afebf1000ad9a903,001,2021-01-01_15h58.43.467,GuessTheSound,2020.2.10,Win32,60,,
,,,,horn at a carnival,0,27,27,60,1,Test/Foils/Airhorn.wav,New,5e5d0bb3afebf1000ad9a903,001,2021-01-01_15h58.43.467,GuessTheSound,2020.2.10,Win32,60,,
,,,,rooster,0,28,28,96,1,Initial/NoRepeat/Rooster_B.wav,Extra,5e5d0bb3afebf1000ad9a903,001,2021-01-01_15h58.43.467,GuessTheSound,2020.2.10,Win32,60,,
,,,,phone ringing,0,29,29,88,1,Test/Foils/DialTone.wav,Extra,5e5d0bb3afebf1000ad9a903,001,2021-01-01_15h58.43.467,GuessTheSound,2020.2.10,Win32,60,,
,,,,sheep,0,30,30,32,1,Initial/NoRepeat/Mosquito_B.wav,NoRepeat,5e5d0bb3afebf1000ad9a903,001,2021-01-01_15h58.43.467,GuessTheSound,2020.2.10,Win32,60,,
,,,,saxophone,0,31,31,36,1,Initial/NoRepeat/Sax_A.wav,NoRepeat,5e5d0bb3afebf1000ad9a903,001,2021-01-01_15h58.43.467,GuessTheSound,2020.2.10,Win32,60,,
,,,,writing,0,32,32,99,1,Initial/Doubled/Writing_A.wav,Extra,5e5d0bb3afebf1000ad9a903,001,2021-01-01_15h58.43.467,GuessTheSound,2020.2.10,Win32,60,,
,,,,harmonica,0,33,33,70,1,Test/Foils/Harmonica.wav,New,5e5d0bb3afebf1000ad9a903,001,2021-01-01_15h58.43.467,GuessTheSound,2020.2.10,Win32,60,,
,,,,eagle,0,34,34,25,1,Initial/NoRepeat/Eagle_B.wav,NoRepeat,5e5d0bb3afebf1000ad9a903,001,2021-01-01_15h58.43.467,GuessTheSound,2020.2.10,Win32,60,,
,,,,small plane,0,35,35,40,1,Initial/Repeat/Airplane_B.wav,Repeat,5e5d0bb3afebf1000ad9a903,001,2021-01-01_15h58.43.467,GuessTheSound,2020.2.10,Win32,60,,
,,,,cuckoo clock,0,36,36,6,1,Initial/Doubled/Cuckoo_A.wav,Doubled,5e5d0bb3afebf1000ad9a903,001,2021-01-01_15h58.43.467,GuessTheSound,2020.2.10,Win32,60,,
,,,,,0,37,37,19,1,Initial/Doubled/Turkey_A.wav,Doubled,5e5d0bb3afebf1000ad9a903,001,2021-01-01_15h58.43.467,GuessTheSound,2020.2.10,Win32,60,,
,,,,horse,0,38,38,72,1,Test/Foils/Horse.wav,New,5e5d0bb3afebf1000ad9a903,001,2021-01-01_15h58.43.467,GuessTheSound,2020.2.10,Win32,60,,
,,,,tap ,0,39,39,27,1,Initial/NoRepeat/Faucet_A.wav,NoRepeat,5e5d0bb3afebf1000ad9a903,001,2021-01-01_15h58.43.467,GuessTheSound,2020.2.10,Win32,60,,
,,,,guitar,0,40,40,91,1,Initial/Doubled/Guitar_A.wav,Extra,5e5d0bb3afebf1000ad9a903,001,2021-01-01_15h58.43.467,GuessTheSound,2020.2.10,Win32,60,,
,,,,walking in heels,0,41,41,29,1,Initial/NoRepeat/Footsteps_B.wav,NoRepeat,5e5d0bb3afebf1000ad9a903,001,2021-01-01_15h58.43.467,GuessTheSound,2020.2.10,Win32,60,,
,,,,cello,0,42,42,43,1,Initial/Repeat/Cello.wav,Repeat,5e5d0bb3afebf1000ad9a903,001,2021-01-01_15h58.43.467,GuessTheSound,2020.2.10,Win32,60,,
,,,,dog barking,0,43,43,7,1,Initial/Doubled/Dog_A.wav,Doubled,5e5d0bb3afebf1000ad9a903,001,2021-01-01_15h58.43.467,GuessTheSound,2020.2.10,Win32,60,,
,,,,harp,0,44,44,14,1,Initial/Doubled/Harp_A.wav,Doubled,5e5d0bb3afebf1000ad9a903,001,2021-01-01_15h58.43.467,GuessTheSound,2020.2.10,Win32,60,,
,,,,blowing bubbles under water,0,45,45,10,1,Initial/Doubled/Gargle_A.wav,Doubled,5e5d0bb3afebf1000ad9a903,001,2021-01-01_15h58.43.467,GuessTheSound,2020.2.10,Win32,60,,
,,,,owl,0,46,46,16,1,Initial/Doubled/Owl_A.wav,Doubled,5e5d0bb3afebf1000ad9a903,001,2021-01-01_15h58.43.467,GuessTheSound,2020.2.10,Win32,60,,
,,,,sports whistle,0,47,47,59,1,Initial/Repeat/Whistle_A.wav,Repeat,5e5d0bb3afebf1000ad9a903,001,2021-01-01_15h58.43.467,GuessTheSound,2020.2.10,Win32,60,,
,,,,music box,0,48,48,33,1,Initial/NoRepeat/MusicBox_A.wav,NoRepeat,5e5d0bb3afebf1000ad9a903,001,2021-01-01_15h58.43.467,GuessTheSound,2020.2.10,Win32,60,,
,,,,birds,0,49,49,62,1,Test/Foils/Bird.wav,New,5e5d0bb3afebf1000ad9a903,001,2021-01-01_15h58.43.467,GuessTheSound,2020.2.10,Win32,60,,
,,,,cow,0,50,50,22,1,Initial/NoRepeat/Cow.wav,NoRepeat,5e5d0bb3afebf1000ad9a903,001,2021-01-01_15h58.43.467,GuessTheSound,2020.2.10,Win32,60,,
,,,,hornpipe,0,51,51,42,1,Initial/Repeat/Bagpipe.wav,Repeat,5e5d0bb3afebf1000ad9a903,001,2021-01-01_15h58.43.467,GuessTheSound,2020.2.10,Win32,60,,
,,,,church bell,0,52,52,2,1,Initial/Doubled/Chime_A.wav,Doubled,5e5d0bb3afebf1000ad9a903,001,2021-01-01_15h58.43.467,GuessTheSound,2020.2.10,Win32,60,,
,,,,storm,0,53,53,18,1,Initial/Doubled/Surf_A.wav,Doubled,5e5d0bb3afebf1000ad9a903,001,2021-01-01_15h58.43.467,GuessTheSound,2020.2.10,Win32,60,,
,,,,droplets droping into a liquid,0,54,54,24,1,Initial/NoRepeat/Droplet_B.wav,NoRepeat,5e5d0bb3afebf1000ad9a903,001,2021-01-01_15h58.43.467,GuessTheSound,2020.2.10,Win32,60,,
,,,,,0,55,55,73,1,Test/Foils/Kettle.wav,New,5e5d0bb3afebf1000ad9a903,001,2021-01-01_15h58.43.467,GuessTheSound,2020.2.10,Win32,60,,
,,,,clock ticking,0,56,56,84,1,Initial/Doubled/Clock_A.wav,Extra,5e5d0bb3afebf1000ad9a903,001,2021-01-01_15h58.43.467,GuessTheSound,2020.2.10,Win32,60,,
,,,,elephant,0,57,57,26,1,Initial/NoRepeat/Elephant_A.wav,NoRepeat,5e5d0bb3afebf1000ad9a903,001,2021-01-01_15h58.43.467,GuessTheSound,2020.2.10,Win32,60,,
,,,,alarm clock,0,58,58,52,1,Initial/Repeat/Phone_A.wav,Repeat,5e5d0bb3afebf1000ad9a903,001,2021-01-01_15h58.43.467,GuessTheSound,2020.2.10,Win32,60,,
,,,,frog,0,59,59,65,1,Test/Foils/Bullfrog.wav,New,5e5d0bb3afebf1000ad9a903,001,2021-01-01_15h58.43.467,GuessTheSound,2020.2.10,Win32,60,,
,,,,,,,,,,,,5e5d0bb3afebf1000ad9a903,001,2021-01-01_15h58.43.467,GuessTheSound,2020.2.10,Win32,60,space,34.025485
