WelcomeContinueKey2.keys,WelcomeContinueKey2.rt,VolumeContinueKey.keys,VolumeContinueKey.rt,ResponseBox.text,trials.thisRepN,trials.thisTrialN,trials.thisN,trials.thisIndex,trials.ran,SoundFiles,Type,participant,session,date,expName,psychopyVersion,OS,frameRate,ExitKey.keys,ExitKey.rt
space,7.12631,space,5.661855,coo-coo clock,0,0,0,6,1,Initial/Doubled/Cuckoo_A.wav,Doubled,5fad9d68fe7eb41482edf800,001,2021-01-03_23h27.42.214,GuessTheSound,2020.2.10,MacIntel,60,,
,,,,laughter,0,1,1,15,1,Initial/Doubled/Laugh_A.wav,Doubled,5fad9d68fe7eb41482edf800,001,2021-01-03_23h27.42.214,GuessTheSound,2020.2.10,MacIntel,60,,
,,,,toilet flush,0,2,2,23,1,Initial/NoRepeat/Toilet_B.wav,NoRepeat,5fad9d68fe7eb41482edf800,001,2021-01-03_23h27.42.214,GuessTheSound,2020.2.10,MacIntel,60,,
,,,,fireworks,0,3,3,28,1,Initial/NoRepeat/Fireworks.wav,NoRepeat,5fad9d68fe7eb41482edf800,001,2021-01-03_23h27.42.214,GuessTheSound,2020.2.10,MacIntel,60,,
,,,,donkey,0,4,4,55,1,Initial/Repeat/Sealion.wav,Repeat,5fad9d68fe7eb41482edf800,001,2021-01-03_23h27.42.214,GuessTheSound,2020.2.10,MacIntel,60,,
,,,,baby gibberish,0,5,5,20,1,Initial/NoRepeat/Baby_B.wav,NoRepeat,5fad9d68fe7eb41482edf800,001,2021-01-03_23h27.42.214,GuessTheSound,2020.2.10,MacIntel,60,,
,,,,piano,0,6,6,9,1,Initial/Doubled/Piano_A.wav,Doubled,5fad9d68fe7eb41482edf800,001,2021-01-03_23h27.42.214,GuessTheSound,2020.2.10,MacIntel,60,,
,,,,percussions,0,7,7,93,1,Initial/NoRepeat/Helicopter_A.wav,Extra,5fad9d68fe7eb41482edf800,001,2021-01-03_23h27.42.214,GuessTheSound,2020.2.10,MacIntel,60,,
,,,,water gargling,0,8,8,10,1,Initial/Doubled/Gargle_A.wav,Doubled,5fad9d68fe7eb41482edf800,001,2021-01-03_23h27.42.214,GuessTheSound,2020.2.10,MacIntel,60,,
,,,,church bells,0,9,9,2,1,Initial/Doubled/Chime_A.wav,Doubled,5fad9d68fe7eb41482edf800,001,2021-01-03_23h27.42.214,GuessTheSound,2020.2.10,MacIntel,60,,
,,,,cello,0,10,10,43,1,Initial/Repeat/Cello.wav,Repeat,5fad9d68fe7eb41482edf800,001,2021-01-03_23h27.42.214,GuessTheSound,2020.2.10,MacIntel,60,,
,,,,clarinet,0,11,11,36,1,Initial/NoRepeat/Sax_A.wav,NoRepeat,5fad9d68fe7eb41482edf800,001,2021-01-03_23h27.42.214,GuessTheSound,2020.2.10,MacIntel,60,,
,,,,elephant,0,12,12,26,1,Initial/NoRepeat/Elephant_A.wav,NoRepeat,5fad9d68fe7eb41482edf800,001,2021-01-03_23h27.42.214,GuessTheSound,2020.2.10,MacIntel,60,,
,,,,seagulls,0,13,13,90,1,Initial/Doubled/Geese_A.wav,Extra,5fad9d68fe7eb41482edf800,001,2021-01-03_23h27.42.214,GuessTheSound,2020.2.10,MacIntel,60,,
,,,,snoring,0,14,14,38,1,Initial/NoRepeat/Snore_B.wav,NoRepeat,5fad9d68fe7eb41482edf800,001,2021-01-03_23h27.42.214,GuessTheSound,2020.2.10,MacIntel,60,,
,,,,ocean waves,0,15,15,18,1,Initial/Doubled/Surf_A.wav,Doubled,5fad9d68fe7eb41482edf800,001,2021-01-03_23h27.42.214,GuessTheSound,2020.2.10,MacIntel,60,,
,,,,squeaky toy,0,16,16,34,1,Initial/NoRepeat/Puff_A.wav,NoRepeat,5fad9d68fe7eb41482edf800,001,2021-01-03_23h27.42.214,GuessTheSound,2020.2.10,MacIntel,60,,
,,,,dog howl,0,17,17,48,1,Initial/Repeat/Howl.wav,Repeat,5fad9d68fe7eb41482edf800,001,2021-01-03_23h27.42.214,GuessTheSound,2020.2.10,MacIntel,60,,
,,,,wooden swords,0,18,18,53,1,Initial/Repeat/Pingpong.wav,Repeat,5fad9d68fe7eb41482edf800,001,2021-01-03_23h27.42.214,GuessTheSound,2020.2.10,MacIntel,60,,
,,,,twinkling jingle,0,19,19,33,1,Initial/NoRepeat/MusicBox_A.wav,NoRepeat,5fad9d68fe7eb41482edf800,001,2021-01-03_23h27.42.214,GuessTheSound,2020.2.10,MacIntel,60,,
,,,,birds singing,0,20,20,62,1,Test/Foils/Bird.wav,New,5fad9d68fe7eb41482edf800,001,2021-01-03_23h27.42.214,GuessTheSound,2020.2.10,MacIntel,60,,
,,,,metal strings,0,21,21,51,1,Initial/Repeat/MetalBang.wav,Repeat,5fad9d68fe7eb41482edf800,001,2021-01-03_23h27.42.214,GuessTheSound,2020.2.10,MacIntel,60,,
,,,,marble bouncing,0,22,22,47,1,Initial/Repeat/Cup.wav,Repeat,5fad9d68fe7eb41482edf800,001,2021-01-03_23h27.42.214,GuessTheSound,2020.2.10,MacIntel,60,,
,,,,door opening slowly,0,23,23,86,1,Initial/Doubled/Creak.wav,Extra,5fad9d68fe7eb41482edf800,001,2021-01-03_23h27.42.214,GuessTheSound,2020.2.10,MacIntel,60,,
,,,,ended phone call,0,24,24,88,1,Test/Foils/DialTone.wav,Extra,5fad9d68fe7eb41482edf800,001,2021-01-03_23h27.42.214,GuessTheSound,2020.2.10,MacIntel,60,,
,,,,dog barking,0,25,25,98,1,Initial/Doubled/Train_A.wav,Extra,5fad9d68fe7eb41482edf800,001,2021-01-03_23h27.42.214,GuessTheSound,2020.2.10,MacIntel,60,,
,,,,duck,0,26,26,89,1,Initial/NoRepeat/Duck_A.wav,Extra,5fad9d68fe7eb41482edf800,001,2021-01-03_23h27.42.214,GuessTheSound,2020.2.10,MacIntel,60,,
,,,,jingle bells,0,27,27,37,1,Initial/NoRepeat/Sleighbells_B.wav,NoRepeat,5fad9d68fe7eb41482edf800,001,2021-01-03_23h27.42.214,GuessTheSound,2020.2.10,MacIntel,60,,
,,,,pop,0,28,28,92,1,Test/Foils/Gulp.wav,Extra,5fad9d68fe7eb41482edf800,001,2021-01-03_23h27.42.214,GuessTheSound,2020.2.10,MacIntel,60,,
,,,,wooden spoon tapping,0,29,29,31,1,Initial/NoRepeat/Hammer_A.wav,NoRepeat,5fad9d68fe7eb41482edf800,001,2021-01-03_23h27.42.214,GuessTheSound,2020.2.10,MacIntel,60,,
,,,,air horn,0,30,30,60,1,Test/Foils/Airhorn.wav,New,5fad9d68fe7eb41482edf800,001,2021-01-03_23h27.42.214,GuessTheSound,2020.2.10,MacIntel,60,,
,,,,guitar,0,31,31,91,1,Initial/Doubled/Guitar_A.wav,Extra,5fad9d68fe7eb41482edf800,001,2021-01-03_23h27.42.214,GuessTheSound,2020.2.10,MacIntel,60,,
,,,,bowling,0,32,32,63,1,Test/Foils/Bowlingpins.wav,New,5fad9d68fe7eb41482edf800,001,2021-01-03_23h27.42.214,GuessTheSound,2020.2.10,MacIntel,60,,
,,,,coding sound,0,33,33,75,1,Test/Foils/Robot.wav,New,5fad9d68fe7eb41482edf800,001,2021-01-03_23h27.42.214,GuessTheSound,2020.2.10,MacIntel,60,,
,,,,ticking,0,34,34,84,1,Initial/Doubled/Clock_A.wav,Extra,5fad9d68fe7eb41482edf800,001,2021-01-03_23h27.42.214,GuessTheSound,2020.2.10,MacIntel,60,,
,,,,vibration,0,35,35,78,1,Test/Foils/Cards.wav,New,5fad9d68fe7eb41482edf800,001,2021-01-03_23h27.42.214,GuessTheSound,2020.2.10,MacIntel,60,,
,,,,teapot whistling,0,36,36,73,1,Test/Foils/Kettle.wav,New,5fad9d68fe7eb41482edf800,001,2021-01-03_23h27.42.214,GuessTheSound,2020.2.10,MacIntel,60,,
,,,,motorcycle,0,37,37,21,1,Initial/NoRepeat/Chainsaw_A.wav,NoRepeat,5fad9d68fe7eb41482edf800,001,2021-01-03_23h27.42.214,GuessTheSound,2020.2.10,MacIntel,60,,
,,,,pills dropping into a glass bottle,0,38,38,94,1,Initial/Repeat/IceDrop.wav,Extra,5fad9d68fe7eb41482edf800,001,2021-01-03_23h27.42.214,GuessTheSound,2020.2.10,MacIntel,60,,
,,,,photograph being taken,0,39,39,80,1,Test/Foils/Camera.wav,Extra,5fad9d68fe7eb41482edf800,001,2021-01-03_23h27.42.214,GuessTheSound,2020.2.10,MacIntel,60,,
,,,,horse hooves,0,40,40,69,1,Test/Foils/Gallop.wav,New,5fad9d68fe7eb41482edf800,001,2021-01-03_23h27.42.214,GuessTheSound,2020.2.10,MacIntel,60,,
,,,,bird hooting,0,41,41,16,1,Initial/Doubled/Owl_A.wav,Doubled,5fad9d68fe7eb41482edf800,001,2021-01-03_23h27.42.214,GuessTheSound,2020.2.10,MacIntel,60,,
,,,,party horn,0,42,42,74,1,Test/Foils/PartyHorn.wav,New,5fad9d68fe7eb41482edf800,001,2021-01-03_23h27.42.214,GuessTheSound,2020.2.10,MacIntel,60,,
,,,,keyboard tapping,0,43,43,77,1,Test/Foils/Typing.wav,New,5fad9d68fe7eb41482edf800,001,2021-01-03_23h27.42.214,GuessTheSound,2020.2.10,MacIntel,60,,
,,,,hair dryer,0,44,44,13,1,Initial/Doubled/HairDryer_A.wav,Doubled,5fad9d68fe7eb41482edf800,001,2021-01-03_23h27.42.214,GuessTheSound,2020.2.10,MacIntel,60,,
,,,,cow / bull,0,45,45,22,1,Initial/NoRepeat/Cow.wav,NoRepeat,5fad9d68fe7eb41482edf800,001,2021-01-03_23h27.42.214,GuessTheSound,2020.2.10,MacIntel,60,,
,,,,sheep,0,46,46,30,1,Initial/NoRepeat/Goat_B.wav,NoRepeat,5fad9d68fe7eb41482edf800,001,2021-01-03_23h27.42.214,GuessTheSound,2020.2.10,MacIntel,60,,
,,,,sirens,0,47,47,11,1,Initial/Doubled/Siren_A.wav,Doubled,5fad9d68fe7eb41482edf800,001,2021-01-03_23h27.42.214,GuessTheSound,2020.2.10,MacIntel,60,,
,,,,phone ringing,0,48,48,52,1,Initial/Repeat/Phone_A.wav,Repeat,5fad9d68fe7eb41482edf800,001,2021-01-03_23h27.42.214,GuessTheSound,2020.2.10,MacIntel,60,,
,,,,slurping,0,49,49,97,1,Test/Foils/Slurp.wav,Extra,5fad9d68fe7eb41482edf800,001,2021-01-03_23h27.42.214,GuessTheSound,2020.2.10,MacIntel,60,,
,,,,train horn,0,50,50,76,1,Test/Foils/Steam.wav,New,5fad9d68fe7eb41482edf800,001,2021-01-03_23h27.42.214,GuessTheSound,2020.2.10,MacIntel,60,,
,,,,sawing a metal string,0,51,51,35,1,Initial/NoRepeat/Saw_A.wav,NoRepeat,5fad9d68fe7eb41482edf800,001,2021-01-03_23h27.42.214,GuessTheSound,2020.2.10,MacIntel,60,,
,,,,bongo drums,0,52,52,46,1,Initial/Repeat/Drum_B.wav,Repeat,5fad9d68fe7eb41482edf800,001,2021-01-03_23h27.42.214,GuessTheSound,2020.2.10,MacIntel,60,,
,,,,running water,0,53,53,27,1,Initial/NoRepeat/Faucet_A.wav,NoRepeat,5fad9d68fe7eb41482edf800,001,2021-01-03_23h27.42.214,GuessTheSound,2020.2.10,MacIntel,60,,
,,,,printer,0,54,54,54,1,Initial/Repeat/Printer.wav,Repeat,5fad9d68fe7eb41482edf800,001,2021-01-03_23h27.42.214,GuessTheSound,2020.2.10,MacIntel,60,,
,,,,horse whinnying,0,55,55,72,1,Test/Foils/Horse.wav,New,5fad9d68fe7eb41482edf800,001,2021-01-03_23h27.42.214,GuessTheSound,2020.2.10,MacIntel,60,,
,,,,heartbeat,0,56,56,71,1,Test/Foils/Heartbeat.wav,New,5fad9d68fe7eb41482edf800,001,2021-01-03_23h27.42.214,GuessTheSound,2020.2.10,MacIntel,60,,
,,,,crow / raven,0,57,57,87,1,Initial/Repeat/Crow_B.wav,Extra,5fad9d68fe7eb41482edf800,001,2021-01-03_23h27.42.214,GuessTheSound,2020.2.10,MacIntel,60,,
,,,,bird laughing,0,58,58,19,1,Initial/Doubled/Turkey_A.wav,Doubled,5fad9d68fe7eb41482edf800,001,2021-01-03_23h27.42.214,GuessTheSound,2020.2.10,MacIntel,60,,
,,,,hen,0,59,59,1,1,Initial/Doubled/Chicken_A.wav,Doubled,5fad9d68fe7eb41482edf800,001,2021-01-03_23h27.42.214,GuessTheSound,2020.2.10,MacIntel,60,,
,,,,,,,,,,,,5fad9d68fe7eb41482edf800,001,2021-01-03_23h27.42.214,GuessTheSound,2020.2.10,MacIntel,60,space,20.610705
