WelcomeContinueKey2.keys,WelcomeContinueKey2.rt,VolumeContinueKey.keys,VolumeContinueKey.rt,ResponseBox.text,trials.thisRepN,trials.thisTrialN,trials.thisN,trials.thisIndex,trials.ran,SoundFiles,Type,participant,session,date,expName,psychopyVersion,OS,frameRate,ExitKey.keys,ExitKey.rt
space,5.720865,space,2.58006,water,0,0,0,24,1,Initial/NoRepeat/Droplet_B.wav,NoRepeat,5a2126371a1ad3000138f77e,001,2021-01-01_16h03.44.239,GuessTheSound,2020.2.10,Win32,60,,
,,,,kettle water being poured,0,1,1,49,1,Initial/Repeat/Pour.wav,Repeat,5a2126371a1ad3000138f77e,001,2021-01-01_16h03.44.239,GuessTheSound,2020.2.10,Win32,60,,
,,,,animals,0,2,2,90,1,Initial/Doubled/Geese_A.wav,Extra,5a2126371a1ad3000138f77e,001,2021-01-01_16h03.44.239,GuessTheSound,2020.2.10,Win32,60,,
,,,,train,0,3,3,98,1,Initial/Doubled/Train_A.wav,Extra,5a2126371a1ad3000138f77e,001,2021-01-01_16h03.44.239,GuessTheSound,2020.2.10,Win32,60,,
,,,,machine,0,4,4,54,1,Initial/Repeat/Printer.wav,Repeat,5a2126371a1ad3000138f77e,001,2021-01-01_16h03.44.239,GuessTheSound,2020.2.10,Win32,60,,
,,,,piano,0,5,5,9,1,Initial/Doubled/Piano_A.wav,Doubled,5a2126371a1ad3000138f77e,001,2021-01-01_16h03.44.239,GuessTheSound,2020.2.10,Win32,60,,
,,,,glass,0,6,6,94,1,Initial/Repeat/IceDrop.wav,Extra,5a2126371a1ad3000138f77e,001,2021-01-01_16h03.44.239,GuessTheSound,2020.2.10,Win32,60,,
,,,,writing felt tip,0,7,7,99,1,Initial/Doubled/Writing_A.wav,Extra,5a2126371a1ad3000138f77e,001,2021-01-01_16h03.44.239,GuessTheSound,2020.2.10,Win32,60,,
,,,,fireworks,0,8,8,28,1,Initial/NoRepeat/Fireworks.wav,NoRepeat,5a2126371a1ad3000138f77e,001,2021-01-01_16h03.44.239,GuessTheSound,2020.2.10,Win32,60,,
,,,,door chime,0,9,9,17,1,Initial/Doubled/Windchime_A.wav,Doubled,5a2126371a1ad3000138f77e,001,2021-01-01_16h03.44.239,GuessTheSound,2020.2.10,Win32,60,,
,,,,gargling,0,10,10,10,1,Initial/Doubled/Gargle_A.wav,Doubled,5a2126371a1ad3000138f77e,001,2021-01-01_16h03.44.239,GuessTheSound,2020.2.10,Win32,60,,
,,,,winding,0,11,11,78,1,Test/Foils/Cards.wav,New,5a2126371a1ad3000138f77e,001,2021-01-01_16h03.44.239,GuessTheSound,2020.2.10,Win32,60,,
,,,,typewriter,0,12,12,77,1,Test/Foils/Typing.wav,New,5a2126371a1ad3000138f77e,001,2021-01-01_16h03.44.239,GuessTheSound,2020.2.10,Win32,60,,
,,,,horn,0,13,13,60,1,Test/Foils/Airhorn.wav,New,5a2126371a1ad3000138f77e,001,2021-01-01_16h03.44.239,GuessTheSound,2020.2.10,Win32,60,,
,,,,animal,0,14,14,66,1,Test/Foils/Buzz.wav,New,5a2126371a1ad3000138f77e,001,2021-01-01_16h03.44.239,GuessTheSound,2020.2.10,Win32,60,,
,,,,fireworks,0,15,15,61,1,Test/Foils/Axe.wav,New,5a2126371a1ad3000138f77e,001,2021-01-01_16h03.44.239,GuessTheSound,2020.2.10,Win32,60,,
,,,,camera,0,16,16,80,1,Test/Foils/Camera.wav,Extra,5a2126371a1ad3000138f77e,001,2021-01-01_16h03.44.239,GuessTheSound,2020.2.10,Win32,60,,
,,,,aeroplane,0,17,17,40,1,Initial/Repeat/Airplane_B.wav,Repeat,5a2126371a1ad3000138f77e,001,2021-01-01_16h03.44.239,GuessTheSound,2020.2.10,Win32,60,,
,,,,flush,0,18,18,63,1,Test/Foils/Bowlingpins.wav,New,5a2126371a1ad3000138f77e,001,2021-01-01_16h03.44.239,GuessTheSound,2020.2.10,Win32,60,,
,,,,water,0,19,19,92,1,Test/Foils/Gulp.wav,Extra,5a2126371a1ad3000138f77e,001,2021-01-01_16h03.44.239,GuessTheSound,2020.2.10,Win32,60,,
,,,,instrument,0,20,20,70,1,Test/Foils/Harmonica.wav,New,5a2126371a1ad3000138f77e,001,2021-01-01_16h03.44.239,GuessTheSound,2020.2.10,Win32,60,,
,,,,whistle,0,21,21,59,1,Initial/Repeat/Whistle_A.wav,Repeat,5a2126371a1ad3000138f77e,001,2021-01-01_16h03.44.239,GuessTheSound,2020.2.10,Win32,60,,
,,,,coins,0,22,22,4,1,Initial/Doubled/Coin_A.wav,Doubled,5a2126371a1ad3000138f77e,001,2021-01-01_16h03.44.239,GuessTheSound,2020.2.10,Win32,60,,
,,,,police car,0,23,23,11,1,Initial/Doubled/Siren_A.wav,Doubled,5a2126371a1ad3000138f77e,001,2021-01-01_16h03.44.239,GuessTheSound,2020.2.10,Win32,60,,
,,,,baby crying,0,24,24,20,1,Initial/NoRepeat/Baby_B.wav,NoRepeat,5a2126371a1ad3000138f77e,001,2021-01-01_16h03.44.239,GuessTheSound,2020.2.10,Win32,60,,
,,,,animals,0,25,25,55,1,Initial/Repeat/Sealion.wav,Repeat,5a2126371a1ad3000138f77e,001,2021-01-01_16h03.44.239,GuessTheSound,2020.2.10,Win32,60,,
,,,,piano,0,26,26,14,1,Initial/Doubled/Harp_A.wav,Doubled,5a2126371a1ad3000138f77e,001,2021-01-01_16h03.44.239,GuessTheSound,2020.2.10,Win32,60,,
,,,,heels,0,27,27,29,1,Initial/NoRepeat/Footsteps_B.wav,NoRepeat,5a2126371a1ad3000138f77e,001,2021-01-01_16h03.44.239,GuessTheSound,2020.2.10,Win32,60,,
,,,,snoring,0,28,28,38,1,Initial/NoRepeat/Snore_B.wav,NoRepeat,5a2126371a1ad3000138f77e,001,2021-01-01_16h03.44.239,GuessTheSound,2020.2.10,Win32,60,,
,,,,racing car,0,29,29,21,1,Initial/NoRepeat/Chainsaw_A.wav,NoRepeat,5a2126371a1ad3000138f77e,001,2021-01-01_16h03.44.239,GuessTheSound,2020.2.10,Win32,60,,
,,,,elephant,0,30,30,86,1,Initial/Doubled/Creak.wav,Extra,5a2126371a1ad3000138f77e,001,2021-01-01_16h03.44.239,GuessTheSound,2020.2.10,Win32,60,,
,,,,water,0,31,31,0,1,Initial/Doubled/Bubbles_A.wav,Doubled,5a2126371a1ad3000138f77e,001,2021-01-01_16h03.44.239,GuessTheSound,2020.2.10,Win32,60,,
,,,,water,0,32,32,18,1,Initial/Doubled/Surf_A.wav,Doubled,5a2126371a1ad3000138f77e,001,2021-01-01_16h03.44.239,GuessTheSound,2020.2.10,Win32,60,,
,,,,,0,33,33,75,1,Test/Foils/Robot.wav,New,5a2126371a1ad3000138f77e,001,2021-01-01_16h03.44.239,GuessTheSound,2020.2.10,Win32,60,,
,,,,,0,34,34,96,1,Initial/NoRepeat/Rooster_B.wav,Extra,5a2126371a1ad3000138f77e,001,2021-01-01_16h03.44.239,GuessTheSound,2020.2.10,Win32,60,,
,,,,,0,35,35,68,1,Test/Foils/Donkey.wav,New,5a2126371a1ad3000138f77e,001,2021-01-01_16h03.44.239,GuessTheSound,2020.2.10,Win32,60,,
,,,,,0,36,36,1,1,Initial/Doubled/Chicken_A.wav,Doubled,5a2126371a1ad3000138f77e,001,2021-01-01_16h03.44.239,GuessTheSound,2020.2.10,Win32,60,,
,,,,,0,37,37,31,1,Initial/NoRepeat/Hammer_A.wav,NoRepeat,5a2126371a1ad3000138f77e,001,2021-01-01_16h03.44.239,GuessTheSound,2020.2.10,Win32,60,,
,,,,animal,0,38,38,12,1,Initial/Doubled/Growl_A.wav,Doubled,5a2126371a1ad3000138f77e,001,2021-01-01_16h03.44.239,GuessTheSound,2020.2.10,Win32,60,,
,,,,dog barking,0,39,39,16,1,Initial/Doubled/Owl_A.wav,Doubled,5a2126371a1ad3000138f77e,001,2021-01-01_16h03.44.239,GuessTheSound,2020.2.10,Win32,60,,
,,,,sport,0,40,40,53,1,Initial/Repeat/Pingpong.wav,Repeat,5a2126371a1ad3000138f77e,001,2021-01-01_16h03.44.239,GuessTheSound,2020.2.10,Win32,60,,
,,,,drums,0,41,41,46,1,Initial/Repeat/Drum_B.wav,Repeat,5a2126371a1ad3000138f77e,001,2021-01-01_16h03.44.239,GuessTheSound,2020.2.10,Win32,60,,
,,,,birds,0,42,42,25,1,Initial/NoRepeat/Eagle_B.wav,NoRepeat,5a2126371a1ad3000138f77e,001,2021-01-01_16h03.44.239,GuessTheSound,2020.2.10,Win32,60,,
,,,,bell,0,43,43,8,1,Initial/Doubled/Doorchime_A.wav,Doubled,5a2126371a1ad3000138f77e,001,2021-01-01_16h03.44.239,GuessTheSound,2020.2.10,Win32,60,,
,,,,birds,0,44,44,19,1,Initial/Doubled/Turkey_A.wav,Doubled,5a2126371a1ad3000138f77e,001,2021-01-01_16h03.44.239,GuessTheSound,2020.2.10,Win32,60,,
,,,,virds,0,45,45,79,1,Test/Foils/Wind_B.wav,New,5a2126371a1ad3000138f77e,001,2021-01-01_16h03.44.239,GuessTheSound,2020.2.10,Win32,60,,
,,,,pig,0,46,46,65,1,Test/Foils/Bullfrog.wav,New,5a2126371a1ad3000138f77e,001,2021-01-01_16h03.44.239,GuessTheSound,2020.2.10,Win32,60,,
,,,,trash can,0,47,47,51,1,Initial/Repeat/MetalBang.wav,Repeat,5a2126371a1ad3000138f77e,001,2021-01-01_16h03.44.239,GuessTheSound,2020.2.10,Win32,60,,
,,,,guitar,0,48,48,91,1,Initial/Doubled/Guitar_A.wav,Extra,5a2126371a1ad3000138f77e,001,2021-01-01_16h03.44.239,GuessTheSound,2020.2.10,Win32,60,,
,,,,cow,0,49,49,22,1,Initial/NoRepeat/Cow.wav,NoRepeat,5a2126371a1ad3000138f77e,001,2021-01-01_16h03.44.239,GuessTheSound,2020.2.10,Win32,60,,
,,,,horse,0,50,50,69,1,Test/Foils/Gallop.wav,New,5a2126371a1ad3000138f77e,001,2021-01-01_16h03.44.239,GuessTheSound,2020.2.10,Win32,60,,
,,,,,0,51,51,67,1,Test/Foils/Curtain.wav,New,5a2126371a1ad3000138f77e,001,2021-01-01_16h03.44.239,GuessTheSound,2020.2.10,Win32,60,,
,,,,ripping paper,0,52,52,95,1,Test/Foils/PaperRip.wav,Extra,5a2126371a1ad3000138f77e,001,2021-01-01_16h03.44.239,GuessTheSound,2020.2.10,Win32,60,,
,,,,bird,0,53,53,41,1,Initial/Repeat/Bat.wav,Repeat,5a2126371a1ad3000138f77e,001,2021-01-01_16h03.44.239,GuessTheSound,2020.2.10,Win32,60,,
,,,,wolf,0,54,54,48,1,Initial/Repeat/Howl.wav,Repeat,5a2126371a1ad3000138f77e,001,2021-01-01_16h03.44.239,GuessTheSound,2020.2.10,Win32,60,,
,,,,heartbeat,0,55,55,71,1,Test/Foils/Heartbeat.wav,New,5a2126371a1ad3000138f77e,001,2021-01-01_16h03.44.239,GuessTheSound,2020.2.10,Win32,60,,
,,,,duck,0,56,56,89,1,Initial/NoRepeat/Duck_A.wav,Extra,5a2126371a1ad3000138f77e,001,2021-01-01_16h03.44.239,GuessTheSound,2020.2.10,Win32,60,,
,,,,animals,0,57,57,26,1,Initial/NoRepeat/Elephant_A.wav,NoRepeat,5a2126371a1ad3000138f77e,001,2021-01-01_16h03.44.239,GuessTheSound,2020.2.10,Win32,60,,
,,,,birds,0,58,58,62,1,Test/Foils/Bird.wav,New,5a2126371a1ad3000138f77e,001,2021-01-01_16h03.44.239,GuessTheSound,2020.2.10,Win32,60,,
,,,,bee,0,59,59,32,1,Initial/NoRepeat/Mosquito_B.wav,NoRepeat,5a2126371a1ad3000138f77e,001,2021-01-01_16h03.44.239,GuessTheSound,2020.2.10,Win32,60,,
,,,,,,,,,,,,5a2126371a1ad3000138f77e,001,2021-01-01_16h03.44.239,GuessTheSound,2020.2.10,Win32,60,space,6.466785
