VolumeContinueKey.keys,VolumeContinueKey.rt,HeadphoneContinueKey.keys,HeadphoneContinueKey.rt,CheckResp.keys,CheckResp.corr,CheckResp.rt,trials_2.thisRepN,trials_2.thisTrialN,trials_2.thisN,trials_2.thisIndex,trials_2.ran,File,Correct,participant,session,date,expName,psychopyVersion,OS,frameRate,ContinueResp.keys,ContinueResp.rt,Wel2ContinueKey.keys,Wel2ContinueKey.rt,WelcomeContinueKey2.keys,WelcomeContinueKey2.rt,Practice_resp.keys,Practice_resp.corr,Practice_resp.rt,PracticeTrials.thisRepN,PracticeTrials.thisTrialN,PracticeTrials.thisN,PracticeTrials.thisIndex,PracticeTrials.ran,SoundFile5,Correct2,Type,StartTast.keys,StartTast.rt,MSTResp.keys,MSTResp.corr,MSTResp.rt,trials.thisRepN,trials.thisTrialN,trials.thisN,trials.thisIndex,trials.ran,ExitKey.keys,ExitKey.rt
space,7.34892,space,7.39896,3,0,10.495335,0,0,0,3,1,Headphone/t2_2.wav,2,5b89d11c19110c0001eb75e5,001,2021-02-17_19h54.19.489,GuessTheSound,2020.2.10,Win32,60,,,,,,,,,,,,,,,,,,,,,,,,,,,,,
,,,,3,1,3.7235,0,1,1,4,1,Headphone/t3_1.wav,3,5b89d11c19110c0001eb75e5,001,2021-02-17_19h54.19.489,GuessTheSound,2020.2.10,Win32,60,,,,,,,,,,,,,,,,,,,,,,,,,,,,,
,,,,1,1,1.344665,0,2,2,1,1,Headphone/t1_2.wav,1,5b89d11c19110c0001eb75e5,001,2021-02-17_19h54.19.489,GuessTheSound,2020.2.10,Win32,60,,,,,,,,,,,,,,,,,,,,,,,,,,,,,
,,,,1,1,0.318555,0,3,3,0,1,Headphone/t1_1.wav,1,5b89d11c19110c0001eb75e5,001,2021-02-17_19h54.19.489,GuessTheSound,2020.2.10,Win32,60,,,,,,,,,,,,,,,,,,,,,,,,,,,,,
,,,,2,1,0.641965,0,4,4,2,1,Headphone/t2_1.wav,2,5b89d11c19110c0001eb75e5,001,2021-02-17_19h54.19.489,GuessTheSound,2020.2.10,Win32,60,,,,,,,,,,,,,,,,,,,,,,,,,,,,,
,,,,3,1,0.393705,0,5,5,5,1,Headphone/t3_2.wav,3,5b89d11c19110c0001eb75e5,001,2021-02-17_19h54.19.489,GuessTheSound,2020.2.10,Win32,60,,,,,,,,,,,,,,,,,,,,,,,,,,,,,
,,,,,,,,,,,,,2,5b89d11c19110c0001eb75e5,001,2021-02-17_19h54.19.489,GuessTheSound,2020.2.10,Win32,60,space,10.03078,space,12.685205,space,4.54736,1,0,4.616245,0,0,0,0,1,Practice/Seagull_A.wav,3,NEW,,,,,,,,,,,,
,,,,,,,,,,,,,2,5b89d11c19110c0001eb75e5,001,2021-02-17_19h54.19.489,GuessTheSound,2020.2.10,Win32,60,,,,,,,3,1,3.618855,0,1,1,1,1,Practice/Skid_B.wav,3,NEW,,,,,,,,,,,,
,,,,,,,,,,,,,1,5b89d11c19110c0001eb75e5,001,2021-02-17_19h54.19.489,GuessTheSound,2020.2.10,Win32,60,,,,,,,2,0,7.298275,0,2,2,2,1,Practice/Seagull_A.wav,1,OLD,,,,,,,,,,,,
,,,,,,,,,,,,,2,5b89d11c19110c0001eb75e5,001,2021-02-17_19h54.19.489,GuessTheSound,2020.2.10,Win32,60,,,,,,,3,1,3.98472,0,3,3,3,1,Practice/Gargle_A.wav,3,NEW,,,,,,,,,,,,
,,,,,,,,,,,,,2,5b89d11c19110c0001eb75e5,001,2021-02-17_19h54.19.489,GuessTheSound,2020.2.10,Win32,60,,,,,,,2,1,0.903055,0,4,4,4,1,Practice/Gargle_B.wav,2,SIMILAR,,,,,,,,,,,,
,,,,,,,,,,,,,2,5b89d11c19110c0001eb75e5,001,2021-02-17_19h54.19.489,GuessTheSound,2020.2.10,Win32,60,,,,,,,,,,,,,,,Initial/Repeat/Buzz.wav,3,NEW,space,5.83405,3,1,3.041565,0,0,0,0,1,,
,,,,,,,,,,,,,2,5b89d11c19110c0001eb75e5,001,2021-02-17_19h54.19.489,GuessTheSound,2020.2.10,Win32,60,,,,,,,,,,,,,,,Test/Lures/Chime_B.wav,3,NEW,,,3,1,5.01969,0,1,1,1,1,,
,,,,,,,,,,,,,2,5b89d11c19110c0001eb75e5,001,2021-02-17_19h54.19.489,GuessTheSound,2020.2.10,Win32,60,,,,,,,,,,,,,,,Initial/NoRepeat/Thunder_A.wav,3,NEW,,,3,1,0.257265,0,2,2,2,1,,
,,,,,,,,,,,,,2,5b89d11c19110c0001eb75e5,001,2021-02-17_19h54.19.489,GuessTheSound,2020.2.10,Win32,60,,,,,,,,,,,,,,,Initial/NoRepeat/Toilet_B.wav,3,NEW,,,2,0,0.38604,0,3,3,3,1,,
,,,,,,,,,,,,,2,5b89d11c19110c0001eb75e5,001,2021-02-17_19h54.19.489,GuessTheSound,2020.2.10,Win32,60,,,,,,,,,,,,,,,Test/Foils/Typing.wav,3,NEW,,,3,1,0.400845,0,4,4,4,1,,
,,,,,,,,,,,,,2,5b89d11c19110c0001eb75e5,001,2021-02-17_19h54.19.489,GuessTheSound,2020.2.10,Win32,60,,,,,,,,,,,,,,,Test/Foils/DialTone.wav,3,NEW,,,3,1,0.30179,0,5,5,5,1,,
,,,,,,,,,,,,,2,5b89d11c19110c0001eb75e5,001,2021-02-17_19h54.19.489,GuessTheSound,2020.2.10,Win32,60,,,,,,,,,,,,,,,Initial/Repeat/Pour.wav,3,NEW,,,3,1,0.304295,0,6,6,6,1,,
,,,,,,,,,,,,,2,5b89d11c19110c0001eb75e5,001,2021-02-17_19h54.19.489,GuessTheSound,2020.2.10,Win32,60,,,,,,,,,,,,,,,Initial/NoRepeat/Sleighbells_B.wav,3,NEW,,,3,1,0.45944,0,7,7,7,1,,
,,,,,,,,,,,,,1,5b89d11c19110c0001eb75e5,001,2021-02-17_19h54.19.489,GuessTheSound,2020.2.10,Win32,60,,,,,,,,,,,,,,,Initial/Repeat/Buzz.wav,1,OLD,,,1,1,0.67688,0,8,8,8,1,,
,,,,,,,,,,,,,2,5b89d11c19110c0001eb75e5,001,2021-02-17_19h54.19.489,GuessTheSound,2020.2.10,Win32,60,,,,,,,,,,,,,,,Initial/NoRepeat/Baby_B.wav,3,NEW,,,3,1,0.43762,0,9,9,9,1,,
,,,,,,,,,,,,,2,5b89d11c19110c0001eb75e5,001,2021-02-17_19h54.19.489,GuessTheSound,2020.2.10,Win32,60,,,,,,,,,,,,,,,Initial/Doubled/Bubbles_A.wav,3,NEW,,,3,1,0.37082,0,10,10,10,1,,
,,,,,,,,,,,,,1,5b89d11c19110c0001eb75e5,001,2021-02-17_19h54.19.489,GuessTheSound,2020.2.10,Win32,60,,,,,,,,,,,,,,,Initial/NoRepeat/Thunder_A.wav,1,OLD,,,1,1,0.652145,0,11,11,11,1,,
,,,,,,,,,,,,,1,5b89d11c19110c0001eb75e5,001,2021-02-17_19h54.19.489,GuessTheSound,2020.2.10,Win32,60,,,,,,,,,,,,,,,Test/Foils/Typing.wav,1,OLD,,,1,1,0.53781,0,12,12,12,1,,
,,,,,,,,,,,,,2,5b89d11c19110c0001eb75e5,001,2021-02-17_19h54.19.489,GuessTheSound,2020.2.10,Win32,60,,,,,,,,,,,,,,,Initial/Doubled/Chime_A.wav,2,SIMILAR,,,1,0,0.26904,0,13,13,13,1,,
,,,,,,,,,,,,,1,5b89d11c19110c0001eb75e5,001,2021-02-17_19h54.19.489,GuessTheSound,2020.2.10,Win32,60,,,,,,,,,,,,,,,Test/Foils/DialTone.wav,1,OLD,,,1,1,0.38725,0,14,14,14,1,,
,,,,,,,,,,,,,2,5b89d11c19110c0001eb75e5,001,2021-02-17_19h54.19.489,GuessTheSound,2020.2.10,Win32,60,,,,,,,,,,,,,,,Initial/Doubled/Writing_A.wav,3,NEW,,,2,0,0.43749,0,15,15,15,1,,
,,,,,,,,,,,,,2,5b89d11c19110c0001eb75e5,001,2021-02-17_19h54.19.489,GuessTheSound,2020.2.10,Win32,60,,,,,,,,,,,,,,,Initial/NoRepeat/Faucet_A.wav,3,NEW,,,2,0,0.377495,0,16,16,16,1,,
,,,,,,,,,,,,,1,5b89d11c19110c0001eb75e5,001,2021-02-17_19h54.19.489,GuessTheSound,2020.2.10,Win32,60,,,,,,,,,,,,,,,Initial/NoRepeat/Toilet_B.wav,1,OLD,,,1,1,0.276855,0,17,17,17,1,,
,,,,,,,,,,,,,2,5b89d11c19110c0001eb75e5,001,2021-02-17_19h54.19.489,GuessTheSound,2020.2.10,Win32,60,,,,,,,,,,,,,,,Pour_C.wav,2,SIMILAR,,,2,1,0.34009,0,18,18,18,1,,
,,,,,,,,,,,,,2,5b89d11c19110c0001eb75e5,001,2021-02-17_19h54.19.489,GuessTheSound,2020.2.10,Win32,60,,,,,,,,,,,,,,,Laugh_D.wav,3,NEW,,,3,1,5.993315,0,19,19,19,1,,
,,,,,,,,,,,,,1,5b89d11c19110c0001eb75e5,001,2021-02-17_19h54.19.489,GuessTheSound,2020.2.10,Win32,60,,,,,,,,,,,,,,,Initial/NoRepeat/Sleighbells_B.wav,1,OLD,,,1,1,0.43902,0,20,20,20,1,,
,,,,,,,,,,,,,1,5b89d11c19110c0001eb75e5,001,2021-02-17_19h54.19.489,GuessTheSound,2020.2.10,Win32,60,,,,,,,,,,,,,,,Initial/Doubled/Bubbles_A.wav,1,OLD,,,1,1,0.357375,0,21,21,21,1,,
,,,,,,,,,,,,,1,5b89d11c19110c0001eb75e5,001,2021-02-17_19h54.19.489,GuessTheSound,2020.2.10,Win32,60,,,,,,,,,,,,,,,Initial/Repeat/Buzz.wav,1,OLD,,,1,1,0.444635,0,22,22,22,1,,
,,,,,,,,,,,,,2,5b89d11c19110c0001eb75e5,001,2021-02-17_19h54.19.489,GuessTheSound,2020.2.10,Win32,60,,,,,,,,,,,,,,,Baby_A.wav,2,SIMILAR,,,2,1,0.62256,0,23,23,23,1,,
,,,,,,,,,,,,,1,5b89d11c19110c0001eb75e5,001,2021-02-17_19h54.19.489,GuessTheSound,2020.2.10,Win32,60,,,,,,,,,,,,,,,Initial/Doubled/Writing_A.wav,1,OLD,,,2,0,0.318,0,24,24,24,1,,
,,,,,,,,,,,,,2,5b89d11c19110c0001eb75e5,001,2021-02-17_19h54.19.489,GuessTheSound,2020.2.10,Win32,60,,,,,,,,,,,,,,,Initial/Doubled/Cough_A.wav,3,NEW,,,3,1,0.34558,0,25,25,25,1,,
,,,,,,,,,,,,,1,5b89d11c19110c0001eb75e5,001,2021-02-17_19h54.19.489,GuessTheSound,2020.2.10,Win32,60,,,,,,,,,,,,,,,Test/Foils/DialTone.wav,1,OLD,,,2,0,0.972245,0,26,26,26,1,,
,,,,,,,,,,,,,2,5b89d11c19110c0001eb75e5,001,2021-02-17_19h54.19.489,GuessTheSound,2020.2.10,Win32,60,,,,,,,,,,,,,,,Test/Lures/Guitar_B.wav,3,NEW,,,3,1,0.06025,0,27,27,27,1,,
,,,,,,,,,,,,,2,5b89d11c19110c0001eb75e5,001,2021-02-17_19h54.19.489,GuessTheSound,2020.2.10,Win32,60,,,,,,,,,,,,,,,Chime_C.wav,2,SIMILAR,,,2,1,0.29583,0,28,28,28,1,,
,,,,,,,,,,,,,2,5b89d11c19110c0001eb75e5,001,2021-02-17_19h54.19.489,GuessTheSound,2020.2.10,Win32,60,,,,,,,,,,,,,,,Initial/Repeat/IceDrop.wav,3,NEW,,,3,1,2.55375,0,29,29,29,1,,
,,,,,,,,,,,,,1,5b89d11c19110c0001eb75e5,001,2021-02-17_19h54.19.489,GuessTheSound,2020.2.10,Win32,60,,,,,,,,,,,,,,,Test/Foils/Typing.wav,1,OLD,,,1,1,0.270985,0,30,30,30,1,,
,,,,,,,,,,,,,2,5b89d11c19110c0001eb75e5,001,2021-02-17_19h54.19.489,GuessTheSound,2020.2.10,Win32,60,,,,,,,,,,,,,,,Bird_C.wav,3,NEW,,,3,1,0.31037,0,31,31,31,1,,
,,,,,,,,,,,,,1,5b89d11c19110c0001eb75e5,001,2021-02-17_19h54.19.489,GuessTheSound,2020.2.10,Win32,60,,,,,,,,,,,,,,,Initial/NoRepeat/Thunder_A.wav,1,OLD,,,1,1,0.82722,0,32,32,32,1,,
,,,,,,,,,,,,,1,5b89d11c19110c0001eb75e5,001,2021-02-17_19h54.19.489,GuessTheSound,2020.2.10,Win32,60,,,,,,,,,,,,,,,Initial/NoRepeat/Faucet_A.wav,1,OLD,,,2,0,0.356635,0,33,33,33,1,,
,,,,,,,,,,,,,1,5b89d11c19110c0001eb75e5,001,2021-02-17_19h54.19.489,GuessTheSound,2020.2.10,Win32,60,,,,,,,,,,,,,,,Initial/NoRepeat/Toilet_B.wav,1,OLD,,,1,1,0.229495,0,34,34,34,1,,
,,,,,,,,,,,,,2,5b89d11c19110c0001eb75e5,001,2021-02-17_19h54.19.489,GuessTheSound,2020.2.10,Win32,60,,,,,,,,,,,,,,,Initial/Doubled/Laugh_A.wav,2,SIMILAR,,,2,1,0.324715,0,35,35,35,1,,
,,,,,,,,,,,,,1,5b89d11c19110c0001eb75e5,001,2021-02-17_19h54.19.489,GuessTheSound,2020.2.10,Win32,60,,,,,,,,,,,,,,,Initial/Doubled/Bubbles_A.wav,1,OLD,,,1,1,0.31177,0,36,36,36,1,,
,,,,,,,,,,,,,2,5b89d11c19110c0001eb75e5,001,2021-02-17_19h54.19.489,GuessTheSound,2020.2.10,Win32,60,,,,,,,,,,,,,,,Initial/Doubled/Chicken_A.wav,3,NEW,,,3,1,0.543395,0,37,37,37,1,,
,,,,,,,,,,,,,2,5b89d11c19110c0001eb75e5,001,2021-02-17_19h54.19.489,GuessTheSound,2020.2.10,Win32,60,,,,,,,,,,,,,,,Pour_D.wav,2,SIMILAR,,,1,0,0.55241,0,38,38,38,1,,
,,,,,,,,,,,,,1,5b89d11c19110c0001eb75e5,001,2021-02-17_19h54.19.489,GuessTheSound,2020.2.10,Win32,60,,,,,,,,,,,,,,,Test/Lures/Guitar_B.wav,1,OLD,,,1,1,0.32749,0,39,39,39,1,,
,,,,,,,,,,,,,1,5b89d11c19110c0001eb75e5,001,2021-02-17_19h54.19.489,GuessTheSound,2020.2.10,Win32,60,,,,,,,,,,,,,,,Initial/NoRepeat/Sleighbells_B.wav,1,OLD,,,1,1,0.335165,0,40,40,40,1,,
,,,,,,,,,,,,,2,5b89d11c19110c0001eb75e5,001,2021-02-17_19h54.19.489,GuessTheSound,2020.2.10,Win32,60,,,,,,,,,,,,,,,Initial/Repeat/Airplane_B.wav,3,NEW,,,3,1,0.304005,0,41,41,41,1,,
,,,,,,,,,,,,,2,5b89d11c19110c0001eb75e5,001,2021-02-17_19h54.19.489,GuessTheSound,2020.2.10,Win32,60,,,,,,,,,,,,,,,Baby_D.wav,2,SIMILAR,,,2,1,0.310155,0,42,42,42,1,,
,,,,,,,,,,,,,2,5b89d11c19110c0001eb75e5,001,2021-02-17_19h54.19.489,GuessTheSound,2020.2.10,Win32,60,,,,,,,,,,,,,,,Cough_D.wav,2,SIMILAR,,,2,1,0.435035,0,43,43,43,1,,
,,,,,,,,,,,,,2,5b89d11c19110c0001eb75e5,001,2021-02-17_19h54.19.489,GuessTheSound,2020.2.10,Win32,60,,,,,,,,,,,,,,,Bird_D.wav,2,SIMILAR,,,2,1,0.68971,0,44,44,44,1,,
,,,,,,,,,,,,,1,5b89d11c19110c0001eb75e5,001,2021-02-17_19h54.19.489,GuessTheSound,2020.2.10,Win32,60,,,,,,,,,,,,,,,Initial/Doubled/Writing_A.wav,1,OLD,,,1,1,0.260415,0,45,45,45,1,,
,,,,,,,,,,,,,1,5b89d11c19110c0001eb75e5,001,2021-02-17_19h54.19.489,GuessTheSound,2020.2.10,Win32,60,,,,,,,,,,,,,,,Initial/Repeat/IceDrop.wav,1,OLD,,,1,1,0.435295,0,46,46,46,1,,
,,,,,,,,,,,,,2,5b89d11c19110c0001eb75e5,001,2021-02-17_19h54.19.489,GuessTheSound,2020.2.10,Win32,60,,,,,,,,,,,,,,,Initial/Repeat/Sneeze_B.wav,3,NEW,,,2,0,0.95115,0,47,47,47,1,,
,,,,,,,,,,,,,2,5b89d11c19110c0001eb75e5,001,2021-02-17_19h54.19.489,GuessTheSound,2020.2.10,Win32,60,,,,,,,,,,,,,,,Initial/NoRepeat/Snore_B.wav,3,NEW,,,3,1,0.251165,0,48,48,48,1,,
,,,,,,,,,,,,,1,5b89d11c19110c0001eb75e5,001,2021-02-17_19h54.19.489,GuessTheSound,2020.2.10,Win32,60,,,,,,,,,,,,,,,Test/Lures/Guitar_B.wav,1,OLD,,,1,1,0.360035,0,49,49,49,1,,
,,,,,,,,,,,,,2,5b89d11c19110c0001eb75e5,001,2021-02-17_19h54.19.489,GuessTheSound,2020.2.10,Win32,60,,,,,,,,,,,,,,,Initial/Doubled/Cat_A.wav,3,NEW,,,3,1,0.290475,0,50,50,50,1,,
,,,,,,,,,,,,,2,5b89d11c19110c0001eb75e5,001,2021-02-17_19h54.19.489,GuessTheSound,2020.2.10,Win32,60,,,,,,,,,,,,,,,Initial/Repeat/Whistle_A.wav,3,NEW,,,3,1,0.23499,0,51,51,51,1,,
,,,,,,,,,,,,,1,5b89d11c19110c0001eb75e5,001,2021-02-17_19h54.19.489,GuessTheSound,2020.2.10,Win32,60,,,,,,,,,,,,,,,Initial/NoRepeat/Faucet_A.wav,1,OLD,,,2,0,0.23439,0,52,52,52,1,,
,,,,,,,,,,,,,2,5b89d11c19110c0001eb75e5,001,2021-02-17_19h54.19.489,GuessTheSound,2020.2.10,Win32,60,,,,,,,,,,,,,,,Laugh_D.wav,2,SIMILAR,,,1,0,0.22191,0,53,53,53,1,,
,,,,,,,,,,,,,1,5b89d11c19110c0001eb75e5,001,2021-02-17_19h54.19.489,GuessTheSound,2020.2.10,Win32,60,,,,,,,,,,,,,,,Initial/Doubled/Chicken_A.wav,1,OLD,,,1,1,0.262395,0,54,54,54,1,,
,,,,,,,,,,,,,2,5b89d11c19110c0001eb75e5,001,2021-02-17_19h54.19.489,GuessTheSound,2020.2.10,Win32,60,,,,,,,,,,,,,,,Initial/Repeat/Bagpipe.wav,3,NEW,,,3,1,0.218805,0,55,55,55,1,,
,,,,,,,,,,,,,1,5b89d11c19110c0001eb75e5,001,2021-02-17_19h54.19.489,GuessTheSound,2020.2.10,Win32,60,,,,,,,,,,,,,,,Initial/Repeat/IceDrop.wav,1,OLD,,,1,1,0.27131,0,56,56,56,1,,
,,,,,,,,,,,,,2,5b89d11c19110c0001eb75e5,001,2021-02-17_19h54.19.489,GuessTheSound,2020.2.10,Win32,60,,,,,,,,,,,,,,,Chomp_B.wav,3,NEW,,,3,1,0.270365,0,57,57,57,1,,
,,,,,,,,,,,,,1,5b89d11c19110c0001eb75e5,001,2021-02-17_19h54.19.489,GuessTheSound,2020.2.10,Win32,60,,,,,,,,,,,,,,,Initial/Repeat/Airplane_B.wav,1,OLD,,,1,1,0.24026,0,58,58,58,1,,
,,,,,,,,,,,,,2,5b89d11c19110c0001eb75e5,001,2021-02-17_19h54.19.489,GuessTheSound,2020.2.10,Win32,60,,,,,,,,,,,,,,,Test/Foils/Bird.wav,2,SIMILAR,,,2,1,1.05335,0,59,59,59,1,,
,,,,,,,,,,,,,2,5b89d11c19110c0001eb75e5,001,2021-02-17_19h54.19.489,GuessTheSound,2020.2.10,Win32,60,,,,,,,,,,,,,,,Cough_C.wav,2,SIMILAR,,,2,1,0.294,0,60,60,60,1,,
,,,,,,,,,,,,,2,5b89d11c19110c0001eb75e5,001,2021-02-17_19h54.19.489,GuessTheSound,2020.2.10,Win32,60,,,,,,,,,,,,,,,Test/Foils/Wind_B.wav,3,NEW,,,3,1,0.402175,0,61,61,61,1,,
,,,,,,,,,,,,,2,5b89d11c19110c0001eb75e5,001,2021-02-17_19h54.19.489,GuessTheSound,2020.2.10,Win32,60,,,,,,,,,,,,,,,Initial/Repeat/Cup.wav,3,NEW,,,3,1,0.38576,0,62,62,62,1,,
,,,,,,,,,,,,,1,5b89d11c19110c0001eb75e5,001,2021-02-17_19h54.19.489,GuessTheSound,2020.2.10,Win32,60,,,,,,,,,,,,,,,Initial/NoRepeat/Snore_B.wav,1,OLD,,,1,1,0.289345,0,63,63,63,1,,
,,,,,,,,,,,,,2,5b89d11c19110c0001eb75e5,001,2021-02-17_19h54.19.489,GuessTheSound,2020.2.10,Win32,60,,,,,,,,,,,,,,,Whistle_B.wav,2,SIMILAR,,,2,1,0.29472,0,64,64,64,1,,
,,,,,,,,,,,,,1,5b89d11c19110c0001eb75e5,001,2021-02-17_19h54.19.489,GuessTheSound,2020.2.10,Win32,60,,,,,,,,,,,,,,,Initial/Repeat/Sneeze_B.wav,1,OLD,,,1,1,0.356385,0,65,65,65,1,,
,,,,,,,,,,,,,2,5b89d11c19110c0001eb75e5,001,2021-02-17_19h54.19.489,GuessTheSound,2020.2.10,Win32,60,,,,,,,,,,,,,,,Initial/NoRepeat/Cow.wav,3,NEW,,,3,1,0.369115,0,66,66,66,1,,
,,,,,,,,,,,,,1,5b89d11c19110c0001eb75e5,001,2021-02-17_19h54.19.489,GuessTheSound,2020.2.10,Win32,60,,,,,,,,,,,,,,,Initial/Doubled/Cat_A.wav,1,OLD,,,2,0,0.96776,0,67,67,67,1,,
,,,,,,,,,,,,,1,5b89d11c19110c0001eb75e5,001,2021-02-17_19h54.19.489,GuessTheSound,2020.2.10,Win32,60,,,,,,,,,,,,,,,Initial/Doubled/Chicken_A.wav,1,OLD,,,1,1,0.29479,0,68,68,68,1,,
,,,,,,,,,,,,,2,5b89d11c19110c0001eb75e5,001,2021-02-17_19h54.19.489,GuessTheSound,2020.2.10,Win32,60,,,,,,,,,,,,,,,Phone_D.wav,3,NEW,,,2,0,0.25661,0,69,69,69,1,,
,,,,,,,,,,,,,1,5b89d11c19110c0001eb75e5,001,2021-02-17_19h54.19.489,GuessTheSound,2020.2.10,Win32,60,,,,,,,,,,,,,,,Initial/Repeat/Bagpipe.wav,1,OLD,,,1,1,0.273655,0,70,70,70,1,,
,,,,,,,,,,,,,2,5b89d11c19110c0001eb75e5,001,2021-02-17_19h54.19.489,GuessTheSound,2020.2.10,Win32,60,,,,,,,,,,,,,,,Chomp_C.wav,2,SIMILAR,,,2,1,0.27171,0,71,71,71,1,,
,,,,,,,,,,,,,1,5b89d11c19110c0001eb75e5,001,2021-02-17_19h54.19.489,GuessTheSound,2020.2.10,Win32,60,,,,,,,,,,,,,,,Initial/Repeat/Cup.wav,1,OLD,,,1,1,1.240555,0,72,72,72,1,,
,,,,,,,,,,,,,1,5b89d11c19110c0001eb75e5,001,2021-02-17_19h54.19.489,GuessTheSound,2020.2.10,Win32,60,,,,,,,,,,,,,,,Initial/Repeat/Sneeze_B.wav,1,OLD,,,1,1,0.685095,0,73,73,73,1,,
,,,,,,,,,,,,,1,5b89d11c19110c0001eb75e5,001,2021-02-17_19h54.19.489,GuessTheSound,2020.2.10,Win32,60,,,,,,,,,,,,,,,Initial/Repeat/Airplane_B.wav,1,OLD,,,1,1,0.220465,0,74,74,74,1,,
,,,,,,,,,,,,,1,5b89d11c19110c0001eb75e5,001,2021-02-17_19h54.19.489,GuessTheSound,2020.2.10,Win32,60,,,,,,,,,,,,,,,Test/Foils/Wind_B.wav,1,OLD,,,1,1,0.075275,0,75,75,75,1,,
,,,,,,,,,,,,,2,5b89d11c19110c0001eb75e5,001,2021-02-17_19h54.19.489,GuessTheSound,2020.2.10,Win32,60,,,,,,,,,,,,,,,Phone_C.wav,2,SIMILAR,,,2,1,0.304965,0,76,76,76,1,,
,,,,,,,,,,,,,1,5b89d11c19110c0001eb75e5,001,2021-02-17_19h54.19.489,GuessTheSound,2020.2.10,Win32,60,,,,,,,,,,,,,,,Initial/Doubled/Cat_A.wav,1,OLD,,,1,1,0.37221,0,77,77,77,1,,
,,,,,,,,,,,,,2,5b89d11c19110c0001eb75e5,001,2021-02-17_19h54.19.489,GuessTheSound,2020.2.10,Win32,60,,,,,,,,,,,,,,,Initial/Doubled/Chomp_A.wav,2,SIMILAR,,,2,1,0.30696,0,78,78,78,1,,
,,,,,,,,,,,,,1,5b89d11c19110c0001eb75e5,001,2021-02-17_19h54.19.489,GuessTheSound,2020.2.10,Win32,60,,,,,,,,,,,,,,,Initial/NoRepeat/Cow.wav,1,OLD,,,2,0,0.791965,0,79,79,79,1,,
,,,,,,,,,,,,,2,5b89d11c19110c0001eb75e5,001,2021-02-17_19h54.19.489,GuessTheSound,2020.2.10,Win32,60,,,,,,,,,,,,,,,Whistle_C.wav,2,SIMILAR,,,2,1,5.58552,0,80,80,80,1,,
,,,,,,,,,,,,,1,5b89d11c19110c0001eb75e5,001,2021-02-17_19h54.19.489,GuessTheSound,2020.2.10,Win32,60,,,,,,,,,,,,,,,Initial/NoRepeat/Snore_B.wav,1,OLD,,,1,1,0.326635,0,81,81,81,1,,
,,,,,,,,,,,,,2,5b89d11c19110c0001eb75e5,001,2021-02-17_19h54.19.489,GuessTheSound,2020.2.10,Win32,60,,,,,,,,,,,,,,,Initial/Doubled/Siren_A.wav,3,NEW,,,3,1,0.26792,0,82,82,82,1,,
,,,,,,,,,,,,,1,5b89d11c19110c0001eb75e5,001,2021-02-17_19h54.19.489,GuessTheSound,2020.2.10,Win32,60,,,,,,,,,,,,,,,Initial/Repeat/Bagpipe.wav,1,OLD,,,1,1,0.53552,0,83,83,83,1,,
,,,,,,,,,,,,,1,5b89d11c19110c0001eb75e5,001,2021-02-17_19h54.19.489,GuessTheSound,2020.2.10,Win32,60,,,,,,,,,,,,,,,Initial/Repeat/Cup.wav,1,OLD,,,1,1,0.91888,0,84,84,84,1,,
,,,,,,,,,,,,,2,5b89d11c19110c0001eb75e5,001,2021-02-17_19h54.19.489,GuessTheSound,2020.2.10,Win32,60,,,,,,,,,,,,,,,Initial/NoRepeat/Footsteps_B.wav,3,NEW,,,3,1,0.354235,0,85,85,85,1,,
,,,,,,,,,,,,,2,5b89d11c19110c0001eb75e5,001,2021-02-17_19h54.19.489,GuessTheSound,2020.2.10,Win32,60,,,,,,,,,,,,,,,Initial/NoRepeat/Fireworks.wav,3,NEW,,,3,1,0.285095,0,86,86,86,1,,
,,,,,,,,,,,,,2,5b89d11c19110c0001eb75e5,001,2021-02-17_19h54.19.489,GuessTheSound,2020.2.10,Win32,60,,,,,,,,,,,,,,,Test/Foils/Bullfrog.wav,3,NEW,,,3,1,0.457725,0,87,87,87,1,,
,,,,,,,,,,,,,2,5b89d11c19110c0001eb75e5,001,2021-02-17_19h54.19.489,GuessTheSound,2020.2.10,Win32,60,,,,,,,,,,,,,,,Initial/Repeat/Phone_A.wav,2,SIMILAR,,,2,1,0.224135,0,88,88,88,1,,
,,,,,,,,,,,,,2,5b89d11c19110c0001eb75e5,001,2021-02-17_19h54.19.489,GuessTheSound,2020.2.10,Win32,60,,,,,,,,,,,,,,,Initial/Doubled/HairDryer_A.wav,3,NEW,,,3,1,0.22337,0,89,89,89,1,,
,,,,,,,,,,,,,2,5b89d11c19110c0001eb75e5,001,2021-02-17_19h54.19.489,GuessTheSound,2020.2.10,Win32,60,,,,,,,,,,,,,,,Initial/Doubled/Cuckoo_A.wav,3,NEW,,,3,1,0.25414,0,90,90,90,1,,
,,,,,,,,,,,,,2,5b89d11c19110c0001eb75e5,001,2021-02-17_19h54.19.489,GuessTheSound,2020.2.10,Win32,60,,,,,,,,,,,,,,,Initial/Repeat/Howl.wav,3,NEW,,,2,0,0.83429,0,91,91,91,1,,
,,,,,,,,,,,,,1,5b89d11c19110c0001eb75e5,001,2021-02-17_19h54.19.489,GuessTheSound,2020.2.10,Win32,60,,,,,,,,,,,,,,,Initial/NoRepeat/Cow.wav,1,OLD,,,1,1,0.26815,0,92,92,92,1,,
,,,,,,,,,,,,,1,5b89d11c19110c0001eb75e5,001,2021-02-17_19h54.19.489,GuessTheSound,2020.2.10,Win32,60,,,,,,,,,,,,,,,Test/Foils/Wind_B.wav,1,OLD,,,1,1,0.26771,0,93,93,93,1,,
,,,,,,,,,,,,,1,5b89d11c19110c0001eb75e5,001,2021-02-17_19h54.19.489,GuessTheSound,2020.2.10,Win32,60,,,,,,,,,,,,,,,Initial/NoRepeat/Footsteps_B.wav,1,OLD,,,1,1,0.283945,0,94,94,94,1,,
,,,,,,,,,,,,,2,5b89d11c19110c0001eb75e5,001,2021-02-17_19h54.19.489,GuessTheSound,2020.2.10,Win32,60,,,,,,,,,,,,,,,Initial/Doubled/Dog_A.wav,3,NEW,,,3,1,0.574965,0,95,95,95,1,,
,,,,,,,,,,,,,2,5b89d11c19110c0001eb75e5,001,2021-02-17_19h54.19.489,GuessTheSound,2020.2.10,Win32,60,,,,,,,,,,,,,,,Initial/Doubled/Clap_A.wav,3,NEW,,,3,1,1.851165,0,96,96,96,1,,
,,,,,,,,,,,,,1,5b89d11c19110c0001eb75e5,001,2021-02-17_19h54.19.489,GuessTheSound,2020.2.10,Win32,60,,,,,,,,,,,,,,,Initial/NoRepeat/Fireworks.wav,1,OLD,,,1,1,0.370015,0,97,97,97,1,,
,,,,,,,,,,,,,1,5b89d11c19110c0001eb75e5,001,2021-02-17_19h54.19.489,GuessTheSound,2020.2.10,Win32,60,,,,,,,,,,,,,,,Test/Foils/Bullfrog.wav,1,OLD,,,1,1,0.5029,0,98,98,98,1,,
,,,,,,,,,,,,,2,5b89d11c19110c0001eb75e5,001,2021-02-17_19h54.19.489,GuessTheSound,2020.2.10,Win32,60,,,,,,,,,,,,,,,Initial/Repeat/PaperRip.wav,3,NEW,,,3,1,0.3446,0,99,99,99,1,,
,,,,,,,,,,,,,2,5b89d11c19110c0001eb75e5,001,2021-02-17_19h54.19.489,GuessTheSound,2020.2.10,Win32,60,,,,,,,,,,,,,,,Siren_C.wav,2,SIMILAR,,,2,1,0.02174,0,100,100,100,1,,
,,,,,,,,,,,,,2,5b89d11c19110c0001eb75e5,001,2021-02-17_19h54.19.489,GuessTheSound,2020.2.10,Win32,60,,,,,,,,,,,,,,,Goat_A.wav,3,NEW,,,3,1,0.37546,0,101,101,101,1,,
,,,,,,,,,,,,,1,5b89d11c19110c0001eb75e5,001,2021-02-17_19h54.19.489,GuessTheSound,2020.2.10,Win32,60,,,,,,,,,,,,,,,Initial/Doubled/HairDryer_A.wav,1,OLD,,,2,0,0.337795,0,102,102,102,1,,
,,,,,,,,,,,,,1,5b89d11c19110c0001eb75e5,001,2021-02-17_19h54.19.489,GuessTheSound,2020.2.10,Win32,60,,,,,,,,,,,,,,,Initial/Doubled/Cuckoo_A.wav,1,OLD,,,1,1,0.302205,0,103,103,103,1,,
,,,,,,,,,,,,,1,5b89d11c19110c0001eb75e5,001,2021-02-17_19h54.19.489,GuessTheSound,2020.2.10,Win32,60,,,,,,,,,,,,,,,Initial/Repeat/Howl.wav,1,OLD,,,1,1,0.69305,0,104,104,104,1,,
,,,,,,,,,,,,,2,5b89d11c19110c0001eb75e5,001,2021-02-17_19h54.19.489,GuessTheSound,2020.2.10,Win32,60,,,,,,,,,,,,,,,Initial/NoRepeat/Helicopter_A.wav,3,NEW,,,3,1,1.806575,0,105,105,105,1,,
,,,,,,,,,,,,,1,5b89d11c19110c0001eb75e5,001,2021-02-17_19h54.19.489,GuessTheSound,2020.2.10,Win32,60,,,,,,,,,,,,,,,Test/Foils/Bullfrog.wav,1,OLD,,,1,1,0.29506,0,106,106,106,1,,
,,,,,,,,,,,,,2,5b89d11c19110c0001eb75e5,001,2021-02-17_19h54.19.489,GuessTheSound,2020.2.10,Win32,60,,,,,,,,,,,,,,,Initial/Repeat/ManWhistle.wav,3,NEW,,,3,1,0.56767,0,107,107,107,1,,
,,,,,,,,,,,,,1,5b89d11c19110c0001eb75e5,001,2021-02-17_19h54.19.489,GuessTheSound,2020.2.10,Win32,60,,,,,,,,,,,,,,,Initial/NoRepeat/Footsteps_B.wav,1,OLD,,,1,1,0.54619,0,108,108,108,1,,
,,,,,,,,,,,,,2,5b89d11c19110c0001eb75e5,001,2021-02-17_19h54.19.489,GuessTheSound,2020.2.10,Win32,60,,,,,,,,,,,,,,,Initial/Doubled/Growl_A.wav,3,NEW,,,3,1,0.28776,0,109,109,109,1,,
,,,,,,,,,,,,,1,5b89d11c19110c0001eb75e5,001,2021-02-17_19h54.19.489,GuessTheSound,2020.2.10,Win32,60,,,,,,,,,,,,,,,Initial/Doubled/Clap_A.wav,1,OLD,,,1,1,0.520015,0,110,110,110,1,,
,,,,,,,,,,,,,2,5b89d11c19110c0001eb75e5,001,2021-02-17_19h54.19.489,GuessTheSound,2020.2.10,Win32,60,,,,,,,,,,,,,,,Siren_B.wav,2,SIMILAR,,,2,1,0.271545,0,111,111,111,1,,
,,,,,,,,,,,,,2,5b89d11c19110c0001eb75e5,001,2021-02-17_19h54.19.489,GuessTheSound,2020.2.10,Win32,60,,,,,,,,,,,,,,,Dog_D.wav,2,SIMILAR,,,2,1,0.344505,0,112,112,112,1,,
,,,,,,,,,,,,,1,5b89d11c19110c0001eb75e5,001,2021-02-17_19h54.19.489,GuessTheSound,2020.2.10,Win32,60,,,,,,,,,,,,,,,Initial/NoRepeat/Fireworks.wav,1,OLD,,,1,1,0.26131,0,113,113,113,1,,
,,,,,,,,,,,,,2,5b89d11c19110c0001eb75e5,001,2021-02-17_19h54.19.489,GuessTheSound,2020.2.10,Win32,60,,,,,,,,,,,,,,,Test/Foils/Camera.wav,3,NEW,,,3,1,0.338025,0,114,114,114,1,,
,,,,,,,,,,,,,2,5b89d11c19110c0001eb75e5,001,2021-02-17_19h54.19.489,GuessTheSound,2020.2.10,Win32,60,,,,,,,,,,,,,,,Piano_B.wav,3,NEW,,,2,0,0.437055,0,115,115,115,1,,
,,,,,,,,,,,,,1,5b89d11c19110c0001eb75e5,001,2021-02-17_19h54.19.489,GuessTheSound,2020.2.10,Win32,60,,,,,,,,,,,,,,,Initial/Repeat/PaperRip.wav,1,OLD,,,1,1,0.254985,0,116,116,116,1,,
,,,,,,,,,,,,,1,5b89d11c19110c0001eb75e5,001,2021-02-17_19h54.19.489,GuessTheSound,2020.2.10,Win32,60,,,,,,,,,,,,,,,Initial/Doubled/HairDryer_A.wav,1,OLD,,,1,1,0.260155,0,117,117,117,1,,
,,,,,,,,,,,,,2,5b89d11c19110c0001eb75e5,001,2021-02-17_19h54.19.489,GuessTheSound,2020.2.10,Win32,60,,,,,,,,,,,,,,,Initial/NoRepeat/Droplet_B.wav,3,NEW,,,2,0,0.34573,0,118,118,118,1,,
,,,,,,,,,,,,,1,5b89d11c19110c0001eb75e5,001,2021-02-17_19h54.19.489,GuessTheSound,2020.2.10,Win32,60,,,,,,,,,,,,,,,Initial/Doubled/Cuckoo_A.wav,1,OLD,,,1,1,0.27103,0,119,119,119,1,,
,,,,,,,,,,,,,1,5b89d11c19110c0001eb75e5,001,2021-02-17_19h54.19.489,GuessTheSound,2020.2.10,Win32,60,,,,,,,,,,,,,,,Initial/NoRepeat/Helicopter_A.wav,1,OLD,,,2,0,0.16849,0,120,120,120,1,,
,,,,,,,,,,,,,2,5b89d11c19110c0001eb75e5,001,2021-02-17_19h54.19.489,GuessTheSound,2020.2.10,Win32,60,,,,,,,,,,,,,,,CarStart_D.wav,3,NEW,,,3,1,0.02033,0,121,121,121,1,,
,,,,,,,,,,,,,1,5b89d11c19110c0001eb75e5,001,2021-02-17_19h54.19.489,GuessTheSound,2020.2.10,Win32,60,,,,,,,,,,,,,,,Initial/Repeat/Howl.wav,1,OLD,,,1,1,0.402855,0,122,122,122,1,,
,,,,,,,,,,,,,2,5b89d11c19110c0001eb75e5,001,2021-02-17_19h54.19.489,GuessTheSound,2020.2.10,Win32,60,,,,,,,,,,,,,,,Growl_B.wav,2,SIMILAR,,,2,1,0.242955,0,123,123,123,1,,
,,,,,,,,,,,,,2,5b89d11c19110c0001eb75e5,001,2021-02-17_19h54.19.489,GuessTheSound,2020.2.10,Win32,60,,,,,,,,,,,,,,,Goat_C.wav,2,SIMILAR,,,1,0,0.235865,0,124,124,124,1,,
,,,,,,,,,,,,,2,5b89d11c19110c0001eb75e5,001,2021-02-17_19h54.19.489,GuessTheSound,2020.2.10,Win32,60,,,,,,,,,,,,,,,Test/Foils/Donkey.wav,3,NEW,,,3,1,0.22174,0,125,125,125,1,,
,,,,,,,,,,,,,1,5b89d11c19110c0001eb75e5,001,2021-02-17_19h54.19.489,GuessTheSound,2020.2.10,Win32,60,,,,,,,,,,,,,,,Initial/Repeat/PaperRip.wav,1,OLD,,,1,1,0.264205,0,126,126,126,1,,
,,,,,,,,,,,,,2,5b89d11c19110c0001eb75e5,001,2021-02-17_19h54.19.489,GuessTheSound,2020.2.10,Win32,60,,,,,,,,,,,,,,,Dog_C.wav,2,SIMILAR,,,2,1,0.3705,0,127,127,127,1,,
,,,,,,,,,,,,,2,5b89d11c19110c0001eb75e5,001,2021-02-17_19h54.19.489,GuessTheSound,2020.2.10,Win32,60,,,,,,,,,,,,,,,ManWhistle_C.wav,2,SIMILAR,,,2,1,0.22672,0,128,128,128,1,,
,,,,,,,,,,,,,2,5b89d11c19110c0001eb75e5,001,2021-02-17_19h54.19.489,GuessTheSound,2020.2.10,Win32,60,,,,,,,,,,,,,,,Initial/Doubled/Piano_A.wav,2,SIMILAR,,,1,0,0.767855,0,129,129,129,1,,
,,,,,,,,,,,,,1,5b89d11c19110c0001eb75e5,001,2021-02-17_19h54.19.489,GuessTheSound,2020.2.10,Win32,60,,,,,,,,,,,,,,,Initial/Doubled/Clap_A.wav,1,OLD,,,1,1,0.09263,0,130,130,130,1,,
,,,,,,,,,,,,,2,5b89d11c19110c0001eb75e5,001,2021-02-17_19h54.19.489,GuessTheSound,2020.2.10,Win32,60,,,,,,,,,,,,,,,CarStart_B.wav,2,SIMILAR,,,2,1,0.254775,0,131,131,131,1,,
,,,,,,,,,,,,,1,5b89d11c19110c0001eb75e5,001,2021-02-17_19h54.19.489,GuessTheSound,2020.2.10,Win32,60,,,,,,,,,,,,,,,Test/Foils/Camera.wav,1,OLD,,,1,1,0.301265,0,132,132,132,1,,
,,,,,,,,,,,,,1,5b89d11c19110c0001eb75e5,001,2021-02-17_19h54.19.489,GuessTheSound,2020.2.10,Win32,60,,,,,,,,,,,,,,,Initial/NoRepeat/Droplet_B.wav,1,OLD,,,1,1,0.23493,0,133,133,133,1,,
,,,,,,,,,,,,,1,5b89d11c19110c0001eb75e5,001,2021-02-17_19h54.19.489,GuessTheSound,2020.2.10,Win32,60,,,,,,,,,,,,,,,Initial/NoRepeat/Helicopter_A.wav,1,OLD,,,1,1,0.09453,0,134,134,134,1,,
,,,,,,,,,,,,,2,5b89d11c19110c0001eb75e5,001,2021-02-17_19h54.19.489,GuessTheSound,2020.2.10,Win32,60,,,,,,,,,,,,,,,Initial/NoRepeat/Goat_B.wav,2,SIMILAR,,,2,1,0.224515,0,135,135,135,1,,
,,,,,,,,,,,,,1,5b89d11c19110c0001eb75e5,001,2021-02-17_19h54.19.489,GuessTheSound,2020.2.10,Win32,60,,,,,,,,,,,,,,,Test/Foils/Donkey.wav,1,OLD,,,1,1,0.236955,0,136,136,136,1,,
,,,,,,,,,,,,,2,5b89d11c19110c0001eb75e5,001,2021-02-17_19h54.19.489,GuessTheSound,2020.2.10,Win32,60,,,,,,,,,,,,,,,ManWhistle_D.wav,2,SIMILAR,,,2,1,0.845135,0,137,137,137,1,,
,,,,,,,,,,,,,2,5b89d11c19110c0001eb75e5,001,2021-02-17_19h54.19.489,GuessTheSound,2020.2.10,Win32,60,,,,,,,,,,,,,,,Growl_D.wav,2,SIMILAR,,,1,0,0.23816,0,138,138,138,1,,
,,,,,,,,,,,,,2,5b89d11c19110c0001eb75e5,001,2021-02-17_19h54.19.489,GuessTheSound,2020.2.10,Win32,60,,,,,,,,,,,,,,,Initial/Doubled/CarStart_A.wav,2,SIMILAR,,,2,1,0.22414,0,139,139,139,1,,
,,,,,,,,,,,,,1,5b89d11c19110c0001eb75e5,001,2021-02-17_19h54.19.489,GuessTheSound,2020.2.10,Win32,60,,,,,,,,,,,,,,,Test/Foils/Donkey.wav,1,OLD,,,1,1,0.250295,0,140,140,140,1,,
,,,,,,,,,,,,,1,5b89d11c19110c0001eb75e5,001,2021-02-17_19h54.19.489,GuessTheSound,2020.2.10,Win32,60,,,,,,,,,,,,,,,Initial/NoRepeat/Droplet_B.wav,1,OLD,,,1,1,0.305075,0,141,141,141,1,,
,,,,,,,,,,,,,2,5b89d11c19110c0001eb75e5,001,2021-02-17_19h54.19.489,GuessTheSound,2020.2.10,Win32,60,,,,,,,,,,,,,,,Piano_C.wav,2,SIMILAR,,,2,1,2.244485,0,142,142,142,1,,
,,,,,,,,,,,,,1,5b89d11c19110c0001eb75e5,001,2021-02-17_19h54.19.489,GuessTheSound,2020.2.10,Win32,60,,,,,,,,,,,,,,,Test/Foils/Camera.wav,1,OLD,,,1,1,1.02265,0,143,143,143,1,,
,,,,,,,,,,,,,,5b89d11c19110c0001eb75e5,001,2021-02-17_19h54.19.489,GuessTheSound,2020.2.10,Win32,60,,,,,,,,,,,,,,,,,,,,,,,,,,,,space,18.38449
