VolumeContinueKey.keys,VolumeContinueKey.rt,HeadphoneContinueKey.keys,HeadphoneContinueKey.rt,CheckResp.keys,CheckResp.corr,CheckResp.rt,trials_2.thisRepN,trials_2.thisTrialN,trials_2.thisN,trials_2.thisIndex,trials_2.ran,File,Correct,participant,session,date,expName,psychopyVersion,OS,frameRate,ContinueResp.keys,ContinueResp.rt,Wel2ContinueKey.keys,Wel2ContinueKey.rt,WelcomeContinueKey2.keys,WelcomeContinueKey2.rt,Practice_resp.keys,Practice_resp.corr,Practice_resp.rt,PracticeTrials.thisRepN,PracticeTrials.thisTrialN,PracticeTrials.thisN,PracticeTrials.thisIndex,PracticeTrials.ran,SoundFile5,Correct2,Type,StartTast.keys,StartTast.rt,MSTResp.keys,MSTResp.corr,MSTResp.rt,trials.thisRepN,trials.thisTrialN,trials.thisN,trials.thisIndex,trials.ran,ExitKey.keys,ExitKey.rt
space,6.174495,space,23.50227,1,1,5.25388,0,0,0,0,1,Headphone/t1_1.wav,1,5d97bf1cfaa2860015b165a6,001,2021-02-17_19h51.51.428,GuessTheSound,2020.2.10,Win32,60,,,,,,,,,,,,,,,,,,,,,,,,,,,,,
,,,,2,1,1.79377,0,1,1,3,1,Headphone/t2_2.wav,2,5d97bf1cfaa2860015b165a6,001,2021-02-17_19h51.51.428,GuessTheSound,2020.2.10,Win32,60,,,,,,,,,,,,,,,,,,,,,,,,,,,,,
,,,,1,1,0.90853,0,2,2,1,1,Headphone/t1_2.wav,1,5d97bf1cfaa2860015b165a6,001,2021-02-17_19h51.51.428,GuessTheSound,2020.2.10,Win32,60,,,,,,,,,,,,,,,,,,,,,,,,,,,,,
,,,,2,1,0.469895,0,3,3,2,1,Headphone/t2_1.wav,2,5d97bf1cfaa2860015b165a6,001,2021-02-17_19h51.51.428,GuessTheSound,2020.2.10,Win32,60,,,,,,,,,,,,,,,,,,,,,,,,,,,,,
,,,,3,1,0.376355,0,4,4,4,1,Headphone/t3_1.wav,3,5d97bf1cfaa2860015b165a6,001,2021-02-17_19h51.51.428,GuessTheSound,2020.2.10,Win32,60,,,,,,,,,,,,,,,,,,,,,,,,,,,,,
,,,,3,1,0.270925,0,5,5,5,1,Headphone/t3_2.wav,3,5d97bf1cfaa2860015b165a6,001,2021-02-17_19h51.51.428,GuessTheSound,2020.2.10,Win32,60,,,,,,,,,,,,,,,,,,,,,,,,,,,,,
,,,,,,,,,,,,,2,5d97bf1cfaa2860015b165a6,001,2021-02-17_19h51.51.428,GuessTheSound,2020.2.10,Win32,60,space,9.045855,space,34.98573,space,4.64725,3,1,5.726535,0,0,0,0,1,Practice/Seagull_A.wav,3,NEW,,,,,,,,,,,,
,,,,,,,,,,,,,2,5d97bf1cfaa2860015b165a6,001,2021-02-17_19h51.51.428,GuessTheSound,2020.2.10,Win32,60,,,,,,,3,1,1.40899,0,1,1,1,1,Practice/Skid_B.wav,3,NEW,,,,,,,,,,,,
,,,,,,,,,,,,,1,5d97bf1cfaa2860015b165a6,001,2021-02-17_19h51.51.428,GuessTheSound,2020.2.10,Win32,60,,,,,,,1,1,5.633375,0,2,2,2,1,Practice/Seagull_A.wav,1,OLD,,,,,,,,,,,,
,,,,,,,,,,,,,2,5d97bf1cfaa2860015b165a6,001,2021-02-17_19h51.51.428,GuessTheSound,2020.2.10,Win32,60,,,,,,,3,1,0.90003,0,3,3,3,1,Practice/Gargle_A.wav,3,NEW,,,,,,,,,,,,
,,,,,,,,,,,,,2,5d97bf1cfaa2860015b165a6,001,2021-02-17_19h51.51.428,GuessTheSound,2020.2.10,Win32,60,,,,,,,2,1,2.020255,0,4,4,4,1,Practice/Gargle_B.wav,2,SIMILAR,,,,,,,,,,,,
,,,,,,,,,,,,,2,5d97bf1cfaa2860015b165a6,001,2021-02-17_19h51.51.428,GuessTheSound,2020.2.10,Win32,60,,,,,,,,,,,,,,,Initial/Repeat/Buzz.wav,3,NEW,space,9.859405,3,1,6.50047,0,0,0,0,1,,
,,,,,,,,,,,,,2,5d97bf1cfaa2860015b165a6,001,2021-02-17_19h51.51.428,GuessTheSound,2020.2.10,Win32,60,,,,,,,,,,,,,,,Test/Lures/Chime_B.wav,3,NEW,,,3,1,0.67097,0,1,1,1,1,,
,,,,,,,,,,,,,2,5d97bf1cfaa2860015b165a6,001,2021-02-17_19h51.51.428,GuessTheSound,2020.2.10,Win32,60,,,,,,,,,,,,,,,Initial/NoRepeat/Thunder_A.wav,3,NEW,,,3,1,0.503985,0,2,2,2,1,,
,,,,,,,,,,,,,2,5d97bf1cfaa2860015b165a6,001,2021-02-17_19h51.51.428,GuessTheSound,2020.2.10,Win32,60,,,,,,,,,,,,,,,Initial/NoRepeat/Toilet_B.wav,3,NEW,,,3,1,0.335275,0,3,3,3,1,,
,,,,,,,,,,,,,2,5d97bf1cfaa2860015b165a6,001,2021-02-17_19h51.51.428,GuessTheSound,2020.2.10,Win32,60,,,,,,,,,,,,,,,Test/Foils/Typing.wav,3,NEW,,,3,1,0.359985,0,4,4,4,1,,
,,,,,,,,,,,,,2,5d97bf1cfaa2860015b165a6,001,2021-02-17_19h51.51.428,GuessTheSound,2020.2.10,Win32,60,,,,,,,,,,,,,,,Test/Foils/DialTone.wav,3,NEW,,,3,1,0.823005,0,5,5,5,1,,
,,,,,,,,,,,,,2,5d97bf1cfaa2860015b165a6,001,2021-02-17_19h51.51.428,GuessTheSound,2020.2.10,Win32,60,,,,,,,,,,,,,,,Initial/Repeat/Pour.wav,3,NEW,,,3,1,0.334645,0,6,6,6,1,,
,,,,,,,,,,,,,2,5d97bf1cfaa2860015b165a6,001,2021-02-17_19h51.51.428,GuessTheSound,2020.2.10,Win32,60,,,,,,,,,,,,,,,Initial/NoRepeat/Sleighbells_B.wav,3,NEW,,,3,1,0.29381,0,7,7,7,1,,
,,,,,,,,,,,,,1,5d97bf1cfaa2860015b165a6,001,2021-02-17_19h51.51.428,GuessTheSound,2020.2.10,Win32,60,,,,,,,,,,,,,,,Initial/Repeat/Buzz.wav,1,OLD,,,2,0,0.77614,0,8,8,8,1,,
,,,,,,,,,,,,,2,5d97bf1cfaa2860015b165a6,001,2021-02-17_19h51.51.428,GuessTheSound,2020.2.10,Win32,60,,,,,,,,,,,,,,,Initial/NoRepeat/Baby_B.wav,3,NEW,,,3,1,0.42411,0,9,9,9,1,,
,,,,,,,,,,,,,2,5d97bf1cfaa2860015b165a6,001,2021-02-17_19h51.51.428,GuessTheSound,2020.2.10,Win32,60,,,,,,,,,,,,,,,Initial/Doubled/Bubbles_A.wav,3,NEW,,,3,1,0.30859,0,10,10,10,1,,
,,,,,,,,,,,,,1,5d97bf1cfaa2860015b165a6,001,2021-02-17_19h51.51.428,GuessTheSound,2020.2.10,Win32,60,,,,,,,,,,,,,,,Initial/NoRepeat/Thunder_A.wav,1,OLD,,,1,1,1.045585,0,11,11,11,1,,
,,,,,,,,,,,,,1,5d97bf1cfaa2860015b165a6,001,2021-02-17_19h51.51.428,GuessTheSound,2020.2.10,Win32,60,,,,,,,,,,,,,,,Test/Foils/Typing.wav,1,OLD,,,2,0,0.61861,0,12,12,12,1,,
,,,,,,,,,,,,,2,5d97bf1cfaa2860015b165a6,001,2021-02-17_19h51.51.428,GuessTheSound,2020.2.10,Win32,60,,,,,,,,,,,,,,,Initial/Doubled/Chime_A.wav,2,SIMILAR,,,2,1,0.579445,0,13,13,13,1,,
,,,,,,,,,,,,,1,5d97bf1cfaa2860015b165a6,001,2021-02-17_19h51.51.428,GuessTheSound,2020.2.10,Win32,60,,,,,,,,,,,,,,,Test/Foils/DialTone.wav,1,OLD,,,1,1,0.527625,0,14,14,14,1,,
,,,,,,,,,,,,,2,5d97bf1cfaa2860015b165a6,001,2021-02-17_19h51.51.428,GuessTheSound,2020.2.10,Win32,60,,,,,,,,,,,,,,,Initial/Doubled/Writing_A.wav,3,NEW,,,3,1,0.357545,0,15,15,15,1,,
,,,,,,,,,,,,,2,5d97bf1cfaa2860015b165a6,001,2021-02-17_19h51.51.428,GuessTheSound,2020.2.10,Win32,60,,,,,,,,,,,,,,,Initial/NoRepeat/Faucet_A.wav,3,NEW,,,3,1,0.83825,0,16,16,16,1,,
,,,,,,,,,,,,,1,5d97bf1cfaa2860015b165a6,001,2021-02-17_19h51.51.428,GuessTheSound,2020.2.10,Win32,60,,,,,,,,,,,,,,,Initial/NoRepeat/Toilet_B.wav,1,OLD,,,2,0,2.922995,0,17,17,17,1,,
,,,,,,,,,,,,,2,5d97bf1cfaa2860015b165a6,001,2021-02-17_19h51.51.428,GuessTheSound,2020.2.10,Win32,60,,,,,,,,,,,,,,,Pour_C.wav,2,SIMILAR,,,3,0,0.290595,0,18,18,18,1,,
,,,,,,,,,,,,,2,5d97bf1cfaa2860015b165a6,001,2021-02-17_19h51.51.428,GuessTheSound,2020.2.10,Win32,60,,,,,,,,,,,,,,,Laugh_D.wav,3,NEW,,,3,1,0.509215,0,19,19,19,1,,
,,,,,,,,,,,,,1,5d97bf1cfaa2860015b165a6,001,2021-02-17_19h51.51.428,GuessTheSound,2020.2.10,Win32,60,,,,,,,,,,,,,,,Initial/NoRepeat/Sleighbells_B.wav,1,OLD,,,1,1,0.60701,0,20,20,20,1,,
,,,,,,,,,,,,,1,5d97bf1cfaa2860015b165a6,001,2021-02-17_19h51.51.428,GuessTheSound,2020.2.10,Win32,60,,,,,,,,,,,,,,,Initial/Doubled/Bubbles_A.wav,1,OLD,,,1,1,0.49428,0,21,21,21,1,,
,,,,,,,,,,,,,1,5d97bf1cfaa2860015b165a6,001,2021-02-17_19h51.51.428,GuessTheSound,2020.2.10,Win32,60,,,,,,,,,,,,,,,Initial/Repeat/Buzz.wav,1,OLD,,,1,1,1.74105,0,22,22,22,1,,
,,,,,,,,,,,,,2,5d97bf1cfaa2860015b165a6,001,2021-02-17_19h51.51.428,GuessTheSound,2020.2.10,Win32,60,,,,,,,,,,,,,,,Baby_A.wav,2,SIMILAR,,,2,1,0.642935,0,23,23,23,1,,
,,,,,,,,,,,,,1,5d97bf1cfaa2860015b165a6,001,2021-02-17_19h51.51.428,GuessTheSound,2020.2.10,Win32,60,,,,,,,,,,,,,,,Initial/Doubled/Writing_A.wav,1,OLD,,,1,1,0.35574,0,24,24,24,1,,
,,,,,,,,,,,,,2,5d97bf1cfaa2860015b165a6,001,2021-02-17_19h51.51.428,GuessTheSound,2020.2.10,Win32,60,,,,,,,,,,,,,,,Initial/Doubled/Cough_A.wav,3,NEW,,,3,1,0.343575,0,25,25,25,1,,
,,,,,,,,,,,,,1,5d97bf1cfaa2860015b165a6,001,2021-02-17_19h51.51.428,GuessTheSound,2020.2.10,Win32,60,,,,,,,,,,,,,,,Test/Foils/DialTone.wav,1,OLD,,,3,0,1.434115,0,26,26,26,1,,
,,,,,,,,,,,,,2,5d97bf1cfaa2860015b165a6,001,2021-02-17_19h51.51.428,GuessTheSound,2020.2.10,Win32,60,,,,,,,,,,,,,,,Test/Lures/Guitar_B.wav,3,NEW,,,3,1,0.351215,0,27,27,27,1,,
,,,,,,,,,,,,,2,5d97bf1cfaa2860015b165a6,001,2021-02-17_19h51.51.428,GuessTheSound,2020.2.10,Win32,60,,,,,,,,,,,,,,,Chime_C.wav,2,SIMILAR,,,2,1,0.9139,0,28,28,28,1,,
,,,,,,,,,,,,,2,5d97bf1cfaa2860015b165a6,001,2021-02-17_19h51.51.428,GuessTheSound,2020.2.10,Win32,60,,,,,,,,,,,,,,,Initial/Repeat/IceDrop.wav,3,NEW,,,3,1,0.39367,0,29,29,29,1,,
,,,,,,,,,,,,,1,5d97bf1cfaa2860015b165a6,001,2021-02-17_19h51.51.428,GuessTheSound,2020.2.10,Win32,60,,,,,,,,,,,,,,,Test/Foils/Typing.wav,1,OLD,,,1,1,0.51665,0,30,30,30,1,,
,,,,,,,,,,,,,2,5d97bf1cfaa2860015b165a6,001,2021-02-17_19h51.51.428,GuessTheSound,2020.2.10,Win32,60,,,,,,,,,,,,,,,Bird_C.wav,3,NEW,,,3,1,0.285765,0,31,31,31,1,,
,,,,,,,,,,,,,1,5d97bf1cfaa2860015b165a6,001,2021-02-17_19h51.51.428,GuessTheSound,2020.2.10,Win32,60,,,,,,,,,,,,,,,Initial/NoRepeat/Thunder_A.wav,1,OLD,,,1,1,0.55698,0,32,32,32,1,,
,,,,,,,,,,,,,1,5d97bf1cfaa2860015b165a6,001,2021-02-17_19h51.51.428,GuessTheSound,2020.2.10,Win32,60,,,,,,,,,,,,,,,Initial/NoRepeat/Faucet_A.wav,1,OLD,,,2,0,0.450535,0,33,33,33,1,,
,,,,,,,,,,,,,1,5d97bf1cfaa2860015b165a6,001,2021-02-17_19h51.51.428,GuessTheSound,2020.2.10,Win32,60,,,,,,,,,,,,,,,Initial/NoRepeat/Toilet_B.wav,1,OLD,,,1,1,0.27295,0,34,34,34,1,,
,,,,,,,,,,,,,2,5d97bf1cfaa2860015b165a6,001,2021-02-17_19h51.51.428,GuessTheSound,2020.2.10,Win32,60,,,,,,,,,,,,,,,Initial/Doubled/Laugh_A.wav,2,SIMILAR,,,2,1,0.28404,0,35,35,35,1,,
,,,,,,,,,,,,,1,5d97bf1cfaa2860015b165a6,001,2021-02-17_19h51.51.428,GuessTheSound,2020.2.10,Win32,60,,,,,,,,,,,,,,,Initial/Doubled/Bubbles_A.wav,1,OLD,,,1,1,0.268445,0,36,36,36,1,,
,,,,,,,,,,,,,2,5d97bf1cfaa2860015b165a6,001,2021-02-17_19h51.51.428,GuessTheSound,2020.2.10,Win32,60,,,,,,,,,,,,,,,Initial/Doubled/Chicken_A.wav,3,NEW,,,3,1,0.6754,0,37,37,37,1,,
,,,,,,,,,,,,,2,5d97bf1cfaa2860015b165a6,001,2021-02-17_19h51.51.428,GuessTheSound,2020.2.10,Win32,60,,,,,,,,,,,,,,,Pour_D.wav,2,SIMILAR,,,2,1,0.888815,0,38,38,38,1,,
,,,,,,,,,,,,,1,5d97bf1cfaa2860015b165a6,001,2021-02-17_19h51.51.428,GuessTheSound,2020.2.10,Win32,60,,,,,,,,,,,,,,,Test/Lures/Guitar_B.wav,1,OLD,,,1,1,2.227815,0,39,39,39,1,,
,,,,,,,,,,,,,1,5d97bf1cfaa2860015b165a6,001,2021-02-17_19h51.51.428,GuessTheSound,2020.2.10,Win32,60,,,,,,,,,,,,,,,Initial/NoRepeat/Sleighbells_B.wav,1,OLD,,,1,1,0.30059,0,40,40,40,1,,
,,,,,,,,,,,,,2,5d97bf1cfaa2860015b165a6,001,2021-02-17_19h51.51.428,GuessTheSound,2020.2.10,Win32,60,,,,,,,,,,,,,,,Initial/Repeat/Airplane_B.wav,3,NEW,,,3,1,0.31995,0,41,41,41,1,,
,,,,,,,,,,,,,2,5d97bf1cfaa2860015b165a6,001,2021-02-17_19h51.51.428,GuessTheSound,2020.2.10,Win32,60,,,,,,,,,,,,,,,Baby_D.wav,2,SIMILAR,,,3,0,3.38445,0,42,42,42,1,,
,,,,,,,,,,,,,2,5d97bf1cfaa2860015b165a6,001,2021-02-17_19h51.51.428,GuessTheSound,2020.2.10,Win32,60,,,,,,,,,,,,,,,Cough_D.wav,2,SIMILAR,,,2,1,0.473155,0,43,43,43,1,,
,,,,,,,,,,,,,2,5d97bf1cfaa2860015b165a6,001,2021-02-17_19h51.51.428,GuessTheSound,2020.2.10,Win32,60,,,,,,,,,,,,,,,Bird_D.wav,2,SIMILAR,,,3,0,0.32805,0,44,44,44,1,,
,,,,,,,,,,,,,1,5d97bf1cfaa2860015b165a6,001,2021-02-17_19h51.51.428,GuessTheSound,2020.2.10,Win32,60,,,,,,,,,,,,,,,Initial/Doubled/Writing_A.wav,1,OLD,,,1,1,0.28404,0,45,45,45,1,,
,,,,,,,,,,,,,1,5d97bf1cfaa2860015b165a6,001,2021-02-17_19h51.51.428,GuessTheSound,2020.2.10,Win32,60,,,,,,,,,,,,,,,Initial/Repeat/IceDrop.wav,1,OLD,,,1,1,0.319685,0,46,46,46,1,,
,,,,,,,,,,,,,2,5d97bf1cfaa2860015b165a6,001,2021-02-17_19h51.51.428,GuessTheSound,2020.2.10,Win32,60,,,,,,,,,,,,,,,Initial/Repeat/Sneeze_B.wav,3,NEW,,,3,1,1.567885,0,47,47,47,1,,
,,,,,,,,,,,,,2,5d97bf1cfaa2860015b165a6,001,2021-02-17_19h51.51.428,GuessTheSound,2020.2.10,Win32,60,,,,,,,,,,,,,,,Initial/NoRepeat/Snore_B.wav,3,NEW,,,3,1,1.02114,0,48,48,48,1,,
,,,,,,,,,,,,,1,5d97bf1cfaa2860015b165a6,001,2021-02-17_19h51.51.428,GuessTheSound,2020.2.10,Win32,60,,,,,,,,,,,,,,,Test/Lures/Guitar_B.wav,1,OLD,,,1,1,0.352795,0,49,49,49,1,,
,,,,,,,,,,,,,2,5d97bf1cfaa2860015b165a6,001,2021-02-17_19h51.51.428,GuessTheSound,2020.2.10,Win32,60,,,,,,,,,,,,,,,Initial/Doubled/Cat_A.wav,3,NEW,,,3,1,0.33496,0,50,50,50,1,,
,,,,,,,,,,,,,2,5d97bf1cfaa2860015b165a6,001,2021-02-17_19h51.51.428,GuessTheSound,2020.2.10,Win32,60,,,,,,,,,,,,,,,Initial/Repeat/Whistle_A.wav,3,NEW,,,3,1,0.38716,0,51,51,51,1,,
,,,,,,,,,,,,,1,5d97bf1cfaa2860015b165a6,001,2021-02-17_19h51.51.428,GuessTheSound,2020.2.10,Win32,60,,,,,,,,,,,,,,,Initial/NoRepeat/Faucet_A.wav,1,OLD,,,2,0,1.3966,0,52,52,52,1,,
,,,,,,,,,,,,,2,5d97bf1cfaa2860015b165a6,001,2021-02-17_19h51.51.428,GuessTheSound,2020.2.10,Win32,60,,,,,,,,,,,,,,,Laugh_D.wav,2,SIMILAR,,,2,1,1.77178,0,53,53,53,1,,
,,,,,,,,,,,,,1,5d97bf1cfaa2860015b165a6,001,2021-02-17_19h51.51.428,GuessTheSound,2020.2.10,Win32,60,,,,,,,,,,,,,,,Initial/Doubled/Chicken_A.wav,1,OLD,,,3,0,1.01677,0,54,54,54,1,,
,,,,,,,,,,,,,2,5d97bf1cfaa2860015b165a6,001,2021-02-17_19h51.51.428,GuessTheSound,2020.2.10,Win32,60,,,,,,,,,,,,,,,Initial/Repeat/Bagpipe.wav,3,NEW,,,3,1,0.358795,0,55,55,55,1,,
,,,,,,,,,,,,,1,5d97bf1cfaa2860015b165a6,001,2021-02-17_19h51.51.428,GuessTheSound,2020.2.10,Win32,60,,,,,,,,,,,,,,,Initial/Repeat/IceDrop.wav,1,OLD,,,1,1,0.50274,0,56,56,56,1,,
,,,,,,,,,,,,,2,5d97bf1cfaa2860015b165a6,001,2021-02-17_19h51.51.428,GuessTheSound,2020.2.10,Win32,60,,,,,,,,,,,,,,,Chomp_B.wav,3,NEW,,,3,1,0.317245,0,57,57,57,1,,
,,,,,,,,,,,,,1,5d97bf1cfaa2860015b165a6,001,2021-02-17_19h51.51.428,GuessTheSound,2020.2.10,Win32,60,,,,,,,,,,,,,,,Initial/Repeat/Airplane_B.wav,1,OLD,,,1,1,0.293515,0,58,58,58,1,,
,,,,,,,,,,,,,2,5d97bf1cfaa2860015b165a6,001,2021-02-17_19h51.51.428,GuessTheSound,2020.2.10,Win32,60,,,,,,,,,,,,,,,Test/Foils/Bird.wav,2,SIMILAR,,,2,1,0.32651,0,59,59,59,1,,
,,,,,,,,,,,,,2,5d97bf1cfaa2860015b165a6,001,2021-02-17_19h51.51.428,GuessTheSound,2020.2.10,Win32,60,,,,,,,,,,,,,,,Cough_C.wav,2,SIMILAR,,,2,1,2.805715,0,60,60,60,1,,
,,,,,,,,,,,,,2,5d97bf1cfaa2860015b165a6,001,2021-02-17_19h51.51.428,GuessTheSound,2020.2.10,Win32,60,,,,,,,,,,,,,,,Test/Foils/Wind_B.wav,3,NEW,,,3,1,0.31723,0,61,61,61,1,,
,,,,,,,,,,,,,2,5d97bf1cfaa2860015b165a6,001,2021-02-17_19h51.51.428,GuessTheSound,2020.2.10,Win32,60,,,,,,,,,,,,,,,Initial/Repeat/Cup.wav,3,NEW,,,2,0,0.89015,0,62,62,62,1,,
,,,,,,,,,,,,,1,5d97bf1cfaa2860015b165a6,001,2021-02-17_19h51.51.428,GuessTheSound,2020.2.10,Win32,60,,,,,,,,,,,,,,,Initial/NoRepeat/Snore_B.wav,1,OLD,,,1,1,0.927,0,63,63,63,1,,
,,,,,,,,,,,,,2,5d97bf1cfaa2860015b165a6,001,2021-02-17_19h51.51.428,GuessTheSound,2020.2.10,Win32,60,,,,,,,,,,,,,,,Whistle_B.wav,2,SIMILAR,,,2,1,1.20571,0,64,64,64,1,,
,,,,,,,,,,,,,1,5d97bf1cfaa2860015b165a6,001,2021-02-17_19h51.51.428,GuessTheSound,2020.2.10,Win32,60,,,,,,,,,,,,,,,Initial/Repeat/Sneeze_B.wav,1,OLD,,,1,1,0.30181,0,65,65,65,1,,
,,,,,,,,,,,,,2,5d97bf1cfaa2860015b165a6,001,2021-02-17_19h51.51.428,GuessTheSound,2020.2.10,Win32,60,,,,,,,,,,,,,,,Initial/NoRepeat/Cow.wav,3,NEW,,,3,1,0.892175,0,66,66,66,1,,
,,,,,,,,,,,,,1,5d97bf1cfaa2860015b165a6,001,2021-02-17_19h51.51.428,GuessTheSound,2020.2.10,Win32,60,,,,,,,,,,,,,,,Initial/Doubled/Cat_A.wav,1,OLD,,,1,1,0.40738,0,67,67,67,1,,
,,,,,,,,,,,,,1,5d97bf1cfaa2860015b165a6,001,2021-02-17_19h51.51.428,GuessTheSound,2020.2.10,Win32,60,,,,,,,,,,,,,,,Initial/Doubled/Chicken_A.wav,1,OLD,,,1,1,0.23695,0,68,68,68,1,,
,,,,,,,,,,,,,2,5d97bf1cfaa2860015b165a6,001,2021-02-17_19h51.51.428,GuessTheSound,2020.2.10,Win32,60,,,,,,,,,,,,,,,Phone_D.wav,3,NEW,,,3,1,0.275105,0,69,69,69,1,,
,,,,,,,,,,,,,1,5d97bf1cfaa2860015b165a6,001,2021-02-17_19h51.51.428,GuessTheSound,2020.2.10,Win32,60,,,,,,,,,,,,,,,Initial/Repeat/Bagpipe.wav,1,OLD,,,1,1,0.902945,0,70,70,70,1,,
,,,,,,,,,,,,,2,5d97bf1cfaa2860015b165a6,001,2021-02-17_19h51.51.428,GuessTheSound,2020.2.10,Win32,60,,,,,,,,,,,,,,,Chomp_C.wav,2,SIMILAR,,,2,1,0.29614,0,71,71,71,1,,
,,,,,,,,,,,,,1,5d97bf1cfaa2860015b165a6,001,2021-02-17_19h51.51.428,GuessTheSound,2020.2.10,Win32,60,,,,,,,,,,,,,,,Initial/Repeat/Cup.wav,1,OLD,,,1,1,0.284955,0,72,72,72,1,,
,,,,,,,,,,,,,1,5d97bf1cfaa2860015b165a6,001,2021-02-17_19h51.51.428,GuessTheSound,2020.2.10,Win32,60,,,,,,,,,,,,,,,Initial/Repeat/Sneeze_B.wav,1,OLD,,,1,1,0.244725,0,73,73,73,1,,
,,,,,,,,,,,,,1,5d97bf1cfaa2860015b165a6,001,2021-02-17_19h51.51.428,GuessTheSound,2020.2.10,Win32,60,,,,,,,,,,,,,,,Initial/Repeat/Airplane_B.wav,1,OLD,,,1,1,0.238415,0,74,74,74,1,,
,,,,,,,,,,,,,1,5d97bf1cfaa2860015b165a6,001,2021-02-17_19h51.51.428,GuessTheSound,2020.2.10,Win32,60,,,,,,,,,,,,,,,Test/Foils/Wind_B.wav,1,OLD,,,1,1,0.1257,0,75,75,75,1,,
,,,,,,,,,,,,,2,5d97bf1cfaa2860015b165a6,001,2021-02-17_19h51.51.428,GuessTheSound,2020.2.10,Win32,60,,,,,,,,,,,,,,,Phone_C.wav,2,SIMILAR,,,2,1,0.26864,0,76,76,76,1,,
,,,,,,,,,,,,,1,5d97bf1cfaa2860015b165a6,001,2021-02-17_19h51.51.428,GuessTheSound,2020.2.10,Win32,60,,,,,,,,,,,,,,,Initial/Doubled/Cat_A.wav,1,OLD,,,1,1,0.590315,0,77,77,77,1,,
,,,,,,,,,,,,,2,5d97bf1cfaa2860015b165a6,001,2021-02-17_19h51.51.428,GuessTheSound,2020.2.10,Win32,60,,,,,,,,,,,,,,,Initial/Doubled/Chomp_A.wav,2,SIMILAR,,,2,1,0.318355,0,78,78,78,1,,
,,,,,,,,,,,,,1,5d97bf1cfaa2860015b165a6,001,2021-02-17_19h51.51.428,GuessTheSound,2020.2.10,Win32,60,,,,,,,,,,,,,,,Initial/NoRepeat/Cow.wav,1,OLD,,,2,0,1.65145,0,79,79,79,1,,
,,,,,,,,,,,,,2,5d97bf1cfaa2860015b165a6,001,2021-02-17_19h51.51.428,GuessTheSound,2020.2.10,Win32,60,,,,,,,,,,,,,,,Whistle_C.wav,2,SIMILAR,,,2,1,0.25329,0,80,80,80,1,,
,,,,,,,,,,,,,1,5d97bf1cfaa2860015b165a6,001,2021-02-17_19h51.51.428,GuessTheSound,2020.2.10,Win32,60,,,,,,,,,,,,,,,Initial/NoRepeat/Snore_B.wav,1,OLD,,,2,0,0.70672,0,81,81,81,1,,
,,,,,,,,,,,,,2,5d97bf1cfaa2860015b165a6,001,2021-02-17_19h51.51.428,GuessTheSound,2020.2.10,Win32,60,,,,,,,,,,,,,,,Initial/Doubled/Siren_A.wav,3,NEW,,,3,1,0.378635,0,82,82,82,1,,
,,,,,,,,,,,,,1,5d97bf1cfaa2860015b165a6,001,2021-02-17_19h51.51.428,GuessTheSound,2020.2.10,Win32,60,,,,,,,,,,,,,,,Initial/Repeat/Bagpipe.wav,1,OLD,,,1,1,0.3132,0,83,83,83,1,,
,,,,,,,,,,,,,1,5d97bf1cfaa2860015b165a6,001,2021-02-17_19h51.51.428,GuessTheSound,2020.2.10,Win32,60,,,,,,,,,,,,,,,Initial/Repeat/Cup.wav,1,OLD,,,1,1,0.25343,0,84,84,84,1,,
,,,,,,,,,,,,,2,5d97bf1cfaa2860015b165a6,001,2021-02-17_19h51.51.428,GuessTheSound,2020.2.10,Win32,60,,,,,,,,,,,,,,,Initial/NoRepeat/Footsteps_B.wav,3,NEW,,,3,1,0.413225,0,85,85,85,1,,
,,,,,,,,,,,,,2,5d97bf1cfaa2860015b165a6,001,2021-02-17_19h51.51.428,GuessTheSound,2020.2.10,Win32,60,,,,,,,,,,,,,,,Initial/NoRepeat/Fireworks.wav,3,NEW,,,3,1,0.207675,0,86,86,86,1,,
,,,,,,,,,,,,,2,5d97bf1cfaa2860015b165a6,001,2021-02-17_19h51.51.428,GuessTheSound,2020.2.10,Win32,60,,,,,,,,,,,,,,,Test/Foils/Bullfrog.wav,3,NEW,,,3,1,0.28952,0,87,87,87,1,,
,,,,,,,,,,,,,2,5d97bf1cfaa2860015b165a6,001,2021-02-17_19h51.51.428,GuessTheSound,2020.2.10,Win32,60,,,,,,,,,,,,,,,Initial/Repeat/Phone_A.wav,2,SIMILAR,,,2,1,0.22996,0,88,88,88,1,,
,,,,,,,,,,,,,2,5d97bf1cfaa2860015b165a6,001,2021-02-17_19h51.51.428,GuessTheSound,2020.2.10,Win32,60,,,,,,,,,,,,,,,Initial/Doubled/HairDryer_A.wav,3,NEW,,,3,1,0.2927,0,89,89,89,1,,
,,,,,,,,,,,,,2,5d97bf1cfaa2860015b165a6,001,2021-02-17_19h51.51.428,GuessTheSound,2020.2.10,Win32,60,,,,,,,,,,,,,,,Initial/Doubled/Cuckoo_A.wav,3,NEW,,,3,1,0.303115,0,90,90,90,1,,
,,,,,,,,,,,,,2,5d97bf1cfaa2860015b165a6,001,2021-02-17_19h51.51.428,GuessTheSound,2020.2.10,Win32,60,,,,,,,,,,,,,,,Initial/Repeat/Howl.wav,3,NEW,,,3,1,0.209075,0,91,91,91,1,,
,,,,,,,,,,,,,1,5d97bf1cfaa2860015b165a6,001,2021-02-17_19h51.51.428,GuessTheSound,2020.2.10,Win32,60,,,,,,,,,,,,,,,Initial/NoRepeat/Cow.wav,1,OLD,,,1,1,0.751295,0,92,92,92,1,,
,,,,,,,,,,,,,1,5d97bf1cfaa2860015b165a6,001,2021-02-17_19h51.51.428,GuessTheSound,2020.2.10,Win32,60,,,,,,,,,,,,,,,Test/Foils/Wind_B.wav,1,OLD,,,1,1,0.336025,0,93,93,93,1,,
,,,,,,,,,,,,,1,5d97bf1cfaa2860015b165a6,001,2021-02-17_19h51.51.428,GuessTheSound,2020.2.10,Win32,60,,,,,,,,,,,,,,,Initial/NoRepeat/Footsteps_B.wav,1,OLD,,,1,1,1.4684,0,94,94,94,1,,
,,,,,,,,,,,,,2,5d97bf1cfaa2860015b165a6,001,2021-02-17_19h51.51.428,GuessTheSound,2020.2.10,Win32,60,,,,,,,,,,,,,,,Initial/Doubled/Dog_A.wav,3,NEW,,,3,1,0.326525,0,95,95,95,1,,
,,,,,,,,,,,,,2,5d97bf1cfaa2860015b165a6,001,2021-02-17_19h51.51.428,GuessTheSound,2020.2.10,Win32,60,,,,,,,,,,,,,,,Initial/Doubled/Clap_A.wav,3,NEW,,,3,1,0.376225,0,96,96,96,1,,
,,,,,,,,,,,,,1,5d97bf1cfaa2860015b165a6,001,2021-02-17_19h51.51.428,GuessTheSound,2020.2.10,Win32,60,,,,,,,,,,,,,,,Initial/NoRepeat/Fireworks.wav,1,OLD,,,2,0,0.264185,0,97,97,97,1,,
,,,,,,,,,,,,,1,5d97bf1cfaa2860015b165a6,001,2021-02-17_19h51.51.428,GuessTheSound,2020.2.10,Win32,60,,,,,,,,,,,,,,,Test/Foils/Bullfrog.wav,1,OLD,,,1,1,0.21836,0,98,98,98,1,,
,,,,,,,,,,,,,2,5d97bf1cfaa2860015b165a6,001,2021-02-17_19h51.51.428,GuessTheSound,2020.2.10,Win32,60,,,,,,,,,,,,,,,Initial/Repeat/PaperRip.wav,3,NEW,,,3,1,0.31312,0,99,99,99,1,,
,,,,,,,,,,,,,2,5d97bf1cfaa2860015b165a6,001,2021-02-17_19h51.51.428,GuessTheSound,2020.2.10,Win32,60,,,,,,,,,,,,,,,Siren_C.wav,2,SIMILAR,,,3,0,0.259695,0,100,100,100,1,,
,,,,,,,,,,,,,2,5d97bf1cfaa2860015b165a6,001,2021-02-17_19h51.51.428,GuessTheSound,2020.2.10,Win32,60,,,,,,,,,,,,,,,Goat_A.wav,3,NEW,,,3,1,0.26834,0,101,101,101,1,,
,,,,,,,,,,,,,1,5d97bf1cfaa2860015b165a6,001,2021-02-17_19h51.51.428,GuessTheSound,2020.2.10,Win32,60,,,,,,,,,,,,,,,Initial/Doubled/HairDryer_A.wav,1,OLD,,,1,1,0.213895,0,102,102,102,1,,
,,,,,,,,,,,,,1,5d97bf1cfaa2860015b165a6,001,2021-02-17_19h51.51.428,GuessTheSound,2020.2.10,Win32,60,,,,,,,,,,,,,,,Initial/Doubled/Cuckoo_A.wav,1,OLD,,,1,1,0.169105,0,103,103,103,1,,
,,,,,,,,,,,,,1,5d97bf1cfaa2860015b165a6,001,2021-02-17_19h51.51.428,GuessTheSound,2020.2.10,Win32,60,,,,,,,,,,,,,,,Initial/Repeat/Howl.wav,1,OLD,,,1,1,0.26595,0,104,104,104,1,,
,,,,,,,,,,,,,2,5d97bf1cfaa2860015b165a6,001,2021-02-17_19h51.51.428,GuessTheSound,2020.2.10,Win32,60,,,,,,,,,,,,,,,Initial/NoRepeat/Helicopter_A.wav,3,NEW,,,3,1,1.02755,0,105,105,105,1,,
,,,,,,,,,,,,,1,5d97bf1cfaa2860015b165a6,001,2021-02-17_19h51.51.428,GuessTheSound,2020.2.10,Win32,60,,,,,,,,,,,,,,,Test/Foils/Bullfrog.wav,1,OLD,,,1,1,0.228555,0,106,106,106,1,,
,,,,,,,,,,,,,2,5d97bf1cfaa2860015b165a6,001,2021-02-17_19h51.51.428,GuessTheSound,2020.2.10,Win32,60,,,,,,,,,,,,,,,Initial/Repeat/ManWhistle.wav,3,NEW,,,3,1,0.342815,0,107,107,107,1,,
,,,,,,,,,,,,,1,5d97bf1cfaa2860015b165a6,001,2021-02-17_19h51.51.428,GuessTheSound,2020.2.10,Win32,60,,,,,,,,,,,,,,,Initial/NoRepeat/Footsteps_B.wav,1,OLD,,,1,1,0.289625,0,108,108,108,1,,
,,,,,,,,,,,,,2,5d97bf1cfaa2860015b165a6,001,2021-02-17_19h51.51.428,GuessTheSound,2020.2.10,Win32,60,,,,,,,,,,,,,,,Initial/Doubled/Growl_A.wav,3,NEW,,,3,1,0.29239,0,109,109,109,1,,
,,,,,,,,,,,,,1,5d97bf1cfaa2860015b165a6,001,2021-02-17_19h51.51.428,GuessTheSound,2020.2.10,Win32,60,,,,,,,,,,,,,,,Initial/Doubled/Clap_A.wav,1,OLD,,,3,0,0.467815,0,110,110,110,1,,
,,,,,,,,,,,,,2,5d97bf1cfaa2860015b165a6,001,2021-02-17_19h51.51.428,GuessTheSound,2020.2.10,Win32,60,,,,,,,,,,,,,,,Siren_B.wav,2,SIMILAR,,,2,1,2.07468,0,111,111,111,1,,
,,,,,,,,,,,,,2,5d97bf1cfaa2860015b165a6,001,2021-02-17_19h51.51.428,GuessTheSound,2020.2.10,Win32,60,,,,,,,,,,,,,,,Dog_D.wav,2,SIMILAR,,,3,0,1.174275,0,112,112,112,1,,
,,,,,,,,,,,,,1,5d97bf1cfaa2860015b165a6,001,2021-02-17_19h51.51.428,GuessTheSound,2020.2.10,Win32,60,,,,,,,,,,,,,,,Initial/NoRepeat/Fireworks.wav,1,OLD,,,1,1,0.65188,0,113,113,113,1,,
,,,,,,,,,,,,,2,5d97bf1cfaa2860015b165a6,001,2021-02-17_19h51.51.428,GuessTheSound,2020.2.10,Win32,60,,,,,,,,,,,,,,,Test/Foils/Camera.wav,3,NEW,,,3,1,0.35225,0,114,114,114,1,,
,,,,,,,,,,,,,2,5d97bf1cfaa2860015b165a6,001,2021-02-17_19h51.51.428,GuessTheSound,2020.2.10,Win32,60,,,,,,,,,,,,,,,Piano_B.wav,3,NEW,,,3,1,0.27894,0,115,115,115,1,,
,,,,,,,,,,,,,1,5d97bf1cfaa2860015b165a6,001,2021-02-17_19h51.51.428,GuessTheSound,2020.2.10,Win32,60,,,,,,,,,,,,,,,Initial/Repeat/PaperRip.wav,1,OLD,,,1,1,0.253275,0,116,116,116,1,,
,,,,,,,,,,,,,1,5d97bf1cfaa2860015b165a6,001,2021-02-17_19h51.51.428,GuessTheSound,2020.2.10,Win32,60,,,,,,,,,,,,,,,Initial/Doubled/HairDryer_A.wav,1,OLD,,,1,1,0.25977,0,117,117,117,1,,
,,,,,,,,,,,,,2,5d97bf1cfaa2860015b165a6,001,2021-02-17_19h51.51.428,GuessTheSound,2020.2.10,Win32,60,,,,,,,,,,,,,,,Initial/NoRepeat/Droplet_B.wav,3,NEW,,,2,0,0.81009,0,118,118,118,1,,
,,,,,,,,,,,,,1,5d97bf1cfaa2860015b165a6,001,2021-02-17_19h51.51.428,GuessTheSound,2020.2.10,Win32,60,,,,,,,,,,,,,,,Initial/Doubled/Cuckoo_A.wav,1,OLD,,,1,1,0.38904,0,119,119,119,1,,
,,,,,,,,,,,,,1,5d97bf1cfaa2860015b165a6,001,2021-02-17_19h51.51.428,GuessTheSound,2020.2.10,Win32,60,,,,,,,,,,,,,,,Initial/NoRepeat/Helicopter_A.wav,1,OLD,,,1,1,0.258545,0,120,120,120,1,,
,,,,,,,,,,,,,2,5d97bf1cfaa2860015b165a6,001,2021-02-17_19h51.51.428,GuessTheSound,2020.2.10,Win32,60,,,,,,,,,,,,,,,CarStart_D.wav,3,NEW,,,3,1,0.32797,0,121,121,121,1,,
,,,,,,,,,,,,,1,5d97bf1cfaa2860015b165a6,001,2021-02-17_19h51.51.428,GuessTheSound,2020.2.10,Win32,60,,,,,,,,,,,,,,,Initial/Repeat/Howl.wav,1,OLD,,,1,1,1.984475,0,122,122,122,1,,
,,,,,,,,,,,,,2,5d97bf1cfaa2860015b165a6,001,2021-02-17_19h51.51.428,GuessTheSound,2020.2.10,Win32,60,,,,,,,,,,,,,,,Growl_B.wav,2,SIMILAR,,,2,1,46.45327,0,123,123,123,1,,
,,,,,,,,,,,,,2,5d97bf1cfaa2860015b165a6,001,2021-02-17_19h51.51.428,GuessTheSound,2020.2.10,Win32,60,,,,,,,,,,,,,,,Goat_C.wav,2,SIMILAR,,,3,0,1.92562,0,124,124,124,1,,
,,,,,,,,,,,,,2,5d97bf1cfaa2860015b165a6,001,2021-02-17_19h51.51.428,GuessTheSound,2020.2.10,Win32,60,,,,,,,,,,,,,,,Test/Foils/Donkey.wav,3,NEW,,,3,1,0.301205,0,125,125,125,1,,
,,,,,,,,,,,,,1,5d97bf1cfaa2860015b165a6,001,2021-02-17_19h51.51.428,GuessTheSound,2020.2.10,Win32,60,,,,,,,,,,,,,,,Initial/Repeat/PaperRip.wav,1,OLD,,,1,1,0.519435,0,126,126,126,1,,
,,,,,,,,,,,,,2,5d97bf1cfaa2860015b165a6,001,2021-02-17_19h51.51.428,GuessTheSound,2020.2.10,Win32,60,,,,,,,,,,,,,,,Dog_C.wav,2,SIMILAR,,,2,1,0.39433,0,127,127,127,1,,
,,,,,,,,,,,,,2,5d97bf1cfaa2860015b165a6,001,2021-02-17_19h51.51.428,GuessTheSound,2020.2.10,Win32,60,,,,,,,,,,,,,,,ManWhistle_C.wav,2,SIMILAR,,,2,1,0.220065,0,128,128,128,1,,
,,,,,,,,,,,,,2,5d97bf1cfaa2860015b165a6,001,2021-02-17_19h51.51.428,GuessTheSound,2020.2.10,Win32,60,,,,,,,,,,,,,,,Initial/Doubled/Piano_A.wav,2,SIMILAR,,,2,1,0.93359,0,129,129,129,1,,
,,,,,,,,,,,,,1,5d97bf1cfaa2860015b165a6,001,2021-02-17_19h51.51.428,GuessTheSound,2020.2.10,Win32,60,,,,,,,,,,,,,,,Initial/Doubled/Clap_A.wav,1,OLD,,,2,0,0.13479,0,130,130,130,1,,
,,,,,,,,,,,,,2,5d97bf1cfaa2860015b165a6,001,2021-02-17_19h51.51.428,GuessTheSound,2020.2.10,Win32,60,,,,,,,,,,,,,,,CarStart_B.wav,2,SIMILAR,,,2,1,0.267015,0,131,131,131,1,,
,,,,,,,,,,,,,1,5d97bf1cfaa2860015b165a6,001,2021-02-17_19h51.51.428,GuessTheSound,2020.2.10,Win32,60,,,,,,,,,,,,,,,Test/Foils/Camera.wav,1,OLD,,,1,1,0.26954,0,132,132,132,1,,
,,,,,,,,,,,,,1,5d97bf1cfaa2860015b165a6,001,2021-02-17_19h51.51.428,GuessTheSound,2020.2.10,Win32,60,,,,,,,,,,,,,,,Initial/NoRepeat/Droplet_B.wav,1,OLD,,,1,1,0.17484,0,133,133,133,1,,
,,,,,,,,,,,,,1,5d97bf1cfaa2860015b165a6,001,2021-02-17_19h51.51.428,GuessTheSound,2020.2.10,Win32,60,,,,,,,,,,,,,,,Initial/NoRepeat/Helicopter_A.wav,1,OLD,,,1,1,0.26698,0,134,134,134,1,,
,,,,,,,,,,,,,2,5d97bf1cfaa2860015b165a6,001,2021-02-17_19h51.51.428,GuessTheSound,2020.2.10,Win32,60,,,,,,,,,,,,,,,Initial/NoRepeat/Goat_B.wav,2,SIMILAR,,,2,1,0.31955,0,135,135,135,1,,
,,,,,,,,,,,,,1,5d97bf1cfaa2860015b165a6,001,2021-02-17_19h51.51.428,GuessTheSound,2020.2.10,Win32,60,,,,,,,,,,,,,,,Test/Foils/Donkey.wav,1,OLD,,,1,1,0.45134,0,136,136,136,1,,
,,,,,,,,,,,,,2,5d97bf1cfaa2860015b165a6,001,2021-02-17_19h51.51.428,GuessTheSound,2020.2.10,Win32,60,,,,,,,,,,,,,,,ManWhistle_D.wav,2,SIMILAR,,,2,1,0.29526,0,137,137,137,1,,
,,,,,,,,,,,,,2,5d97bf1cfaa2860015b165a6,001,2021-02-17_19h51.51.428,GuessTheSound,2020.2.10,Win32,60,,,,,,,,,,,,,,,Growl_D.wav,2,SIMILAR,,,2,1,0.792955,0,138,138,138,1,,
,,,,,,,,,,,,,2,5d97bf1cfaa2860015b165a6,001,2021-02-17_19h51.51.428,GuessTheSound,2020.2.10,Win32,60,,,,,,,,,,,,,,,Initial/Doubled/CarStart_A.wav,2,SIMILAR,,,1,0,0.301615,0,139,139,139,1,,
,,,,,,,,,,,,,1,5d97bf1cfaa2860015b165a6,001,2021-02-17_19h51.51.428,GuessTheSound,2020.2.10,Win32,60,,,,,,,,,,,,,,,Test/Foils/Donkey.wav,1,OLD,,,1,1,0.558595,0,140,140,140,1,,
,,,,,,,,,,,,,1,5d97bf1cfaa2860015b165a6,001,2021-02-17_19h51.51.428,GuessTheSound,2020.2.10,Win32,60,,,,,,,,,,,,,,,Initial/NoRepeat/Droplet_B.wav,1,OLD,,,1,1,0.28478,0,141,141,141,1,,
,,,,,,,,,,,,,2,5d97bf1cfaa2860015b165a6,001,2021-02-17_19h51.51.428,GuessTheSound,2020.2.10,Win32,60,,,,,,,,,,,,,,,Piano_C.wav,2,SIMILAR,,,2,1,0.45676,0,142,142,142,1,,
,,,,,,,,,,,,,1,5d97bf1cfaa2860015b165a6,001,2021-02-17_19h51.51.428,GuessTheSound,2020.2.10,Win32,60,,,,,,,,,,,,,,,Test/Foils/Camera.wav,1,OLD,,,1,1,0.2904,0,143,143,143,1,,
,,,,,,,,,,,,,,5d97bf1cfaa2860015b165a6,001,2021-02-17_19h51.51.428,GuessTheSound,2020.2.10,Win32,60,,,,,,,,,,,,,,,,,,,,,,,,,,,,space,20.00254
