WelcomeContinueKey2.keys,WelcomeContinueKey2.rt,VolumeContinueKey.keys,VolumeContinueKey.rt,ResponseBox.text,trials.thisRepN,trials.thisTrialN,trials.thisN,trials.thisIndex,trials.ran,SoundFiles,Type,participant,session,date,expName,psychopyVersion,OS,frameRate,ExitKey.keys,ExitKey.rt
space,5.808,space,3.72,Kid's toy trumpet,0,0,0,36,1,Initial/NoRepeat/Sax_A.wav,NoRepeat,5e0613233ccda2ffaaeec5bd,001,2021-01-01_17h00.06.671,GuessTheSound,2020.2.10,Win32,60,,
,,,,piano,0,1,1,43,1,Initial/Repeat/Cello.wav,Repeat,5e0613233ccda2ffaaeec5bd,001,2021-01-01_17h00.06.671,GuessTheSound,2020.2.10,Win32,60,,
,,,,wood panel being lifted,0,2,2,86,1,Initial/Doubled/Creak.wav,Extra,5e0613233ccda2ffaaeec5bd,001,2021-01-01_17h00.06.671,GuessTheSound,2020.2.10,Win32,60,,
,,,,duck noise,0,3,3,89,1,Initial/NoRepeat/Duck_A.wav,Extra,5e0613233ccda2ffaaeec5bd,001,2021-01-01_17h00.06.671,GuessTheSound,2020.2.10,Win32,60,,
,,,,group laughter,0,4,4,15,1,Initial/Doubled/Laugh_A.wav,Doubled,5e0613233ccda2ffaaeec5bd,001,2021-01-01_17h00.06.671,GuessTheSound,2020.2.10,Win32,60,,
,,,,scary laughter,0,5,5,72,1,Test/Foils/Horse.wav,New,5e0613233ccda2ffaaeec5bd,001,2021-01-01_17h00.06.671,GuessTheSound,2020.2.10,Win32,60,,
,,,,sneeze,0,6,6,56,1,Initial/Repeat/Sneeze_B.wav,Repeat,5e0613233ccda2ffaaeec5bd,001,2021-01-01_17h00.06.671,GuessTheSound,2020.2.10,Win32,60,,
,,,,clacson,0,7,7,58,1,Initial/Repeat/Trumpet_B.wav,Repeat,5e0613233ccda2ffaaeec5bd,001,2021-01-01_17h00.06.671,GuessTheSound,2020.2.10,Win32,60,,
,,,,thunder,0,8,8,39,1,Initial/NoRepeat/Thunder_A.wav,NoRepeat,5e0613233ccda2ffaaeec5bd,001,2021-01-01_17h00.06.671,GuessTheSound,2020.2.10,Win32,60,,
,,,,siren,0,9,9,11,1,Initial/Doubled/Siren_A.wav,Doubled,5e0613233ccda2ffaaeec5bd,001,2021-01-01_17h00.06.671,GuessTheSound,2020.2.10,Win32,60,,
,,,,guitar chord,0,10,10,91,1,Initial/Doubled/Guitar_A.wav,Extra,5e0613233ccda2ffaaeec5bd,001,2021-01-01_17h00.06.671,GuessTheSound,2020.2.10,Win32,60,,
,,,,elephant,0,11,11,55,1,Initial/Repeat/Sealion.wav,Repeat,5e0613233ccda2ffaaeec5bd,001,2021-01-01_17h00.06.671,GuessTheSound,2020.2.10,Win32,60,,
,,,,helicopter rotors,0,12,12,93,1,Initial/NoRepeat/Helicopter_A.wav,Extra,5e0613233ccda2ffaaeec5bd,001,2021-01-01_17h00.06.671,GuessTheSound,2020.2.10,Win32,60,,
,,,,engine start,0,13,13,81,1,Initial/Doubled/CarStart_A.wav,Extra,5e0613233ccda2ffaaeec5bd,001,2021-01-01_17h00.06.671,GuessTheSound,2020.2.10,Win32,60,,
,,,,cutting on a board,0,14,14,31,1,Initial/NoRepeat/Hammer_A.wav,NoRepeat,5e0613233ccda2ffaaeec5bd,001,2021-01-01_17h00.06.671,GuessTheSound,2020.2.10,Win32,60,,
,,,,crickets,0,15,15,5,1,Initial/Doubled/Cricket_A.wav,Doubled,5e0613233ccda2ffaaeec5bd,001,2021-01-01_17h00.06.671,GuessTheSound,2020.2.10,Win32,60,,
,,,,beverage slurping,0,16,16,97,1,Test/Foils/Slurp.wav,Extra,5e0613233ccda2ffaaeec5bd,001,2021-01-01_17h00.06.671,GuessTheSound,2020.2.10,Win32,60,,
,,,,alarm clock,0,17,17,52,1,Initial/Repeat/Phone_A.wav,Repeat,5e0613233ccda2ffaaeec5bd,001,2021-01-01_17h00.06.671,GuessTheSound,2020.2.10,Win32,60,,
,,,,,0,18,18,26,1,Initial/NoRepeat/Elephant_A.wav,NoRepeat,5e0613233ccda2ffaaeec5bd,001,2021-01-01_17h00.06.671,GuessTheSound,2020.2.10,Win32,60,,
,,,,dog woof,0,19,19,7,1,Initial/Doubled/Dog_A.wav,Doubled,5e0613233ccda2ffaaeec5bd,001,2021-01-01_17h00.06.671,GuessTheSound,2020.2.10,Win32,60,,
,,,,scary wind,0,20,20,79,1,Test/Foils/Wind_B.wav,New,5e0613233ccda2ffaaeec5bd,001,2021-01-01_17h00.06.671,GuessTheSound,2020.2.10,Win32,60,,
,,,,child cry,0,21,21,20,1,Initial/NoRepeat/Baby_B.wav,NoRepeat,5e0613233ccda2ffaaeec5bd,001,2021-01-01_17h00.06.671,GuessTheSound,2020.2.10,Win32,60,,
,,,,,0,22,22,32,1,Initial/NoRepeat/Mosquito_B.wav,NoRepeat,5e0613233ccda2ffaaeec5bd,001,2021-01-01_17h00.06.671,GuessTheSound,2020.2.10,Win32,60,,
,,,,thunder,0,23,23,18,1,Initial/Doubled/Surf_A.wav,Doubled,5e0613233ccda2ffaaeec5bd,001,2021-01-01_17h00.06.671,GuessTheSound,2020.2.10,Win32,60,,
,,,,,0,24,24,30,1,Initial/NoRepeat/Goat_B.wav,NoRepeat,5e0613233ccda2ffaaeec5bd,001,2021-01-01_17h00.06.671,GuessTheSound,2020.2.10,Win32,60,,
,,,,hen ,0,25,25,1,1,Initial/Doubled/Chicken_A.wav,Doubled,5e0613233ccda2ffaaeec5bd,001,2021-01-01_17h00.06.671,GuessTheSound,2020.2.10,Win32,60,,
,,,,walking,0,26,26,29,1,Initial/NoRepeat/Footsteps_B.wav,NoRepeat,5e0613233ccda2ffaaeec5bd,001,2021-01-01_17h00.06.671,GuessTheSound,2020.2.10,Win32,60,,
,,,,snoring,0,27,27,38,1,Initial/NoRepeat/Snore_B.wav,NoRepeat,5e0613233ccda2ffaaeec5bd,001,2021-01-01_17h00.06.671,GuessTheSound,2020.2.10,Win32,60,,
,,,,,0,28,28,64,1,Test/Foils/Brushing.wav,New,5e0613233ccda2ffaaeec5bd,001,2021-01-01_17h00.06.671,GuessTheSound,2020.2.10,Win32,60,,
,,,,phone vibration,0,29,29,66,1,Test/Foils/Buzz.wav,New,5e0613233ccda2ffaaeec5bd,001,2021-01-01_17h00.06.671,GuessTheSound,2020.2.10,Win32,60,,
,,,,,0,30,30,73,1,Test/Foils/Kettle.wav,New,5e0613233ccda2ffaaeec5bd,001,2021-01-01_17h00.06.671,GuessTheSound,2020.2.10,Win32,60,,
,,,,harmonica,0,31,31,70,1,Test/Foils/Harmonica.wav,New,5e0613233ccda2ffaaeec5bd,001,2021-01-01_17h00.06.671,GuessTheSound,2020.2.10,Win32,60,,
,,,,vacuum cleaner,0,32,32,13,1,Initial/Doubled/HairDryer_A.wav,Doubled,5e0613233ccda2ffaaeec5bd,001,2021-01-01_17h00.06.671,GuessTheSound,2020.2.10,Win32,60,,
,,,,bird chirp,0,33,33,62,1,Test/Foils/Bird.wav,New,5e0613233ccda2ffaaeec5bd,001,2021-01-01_17h00.06.671,GuessTheSound,2020.2.10,Win32,60,,
,,,,,0,34,34,35,1,Initial/NoRepeat/Saw_A.wav,NoRepeat,5e0613233ccda2ffaaeec5bd,001,2021-01-01_17h00.06.671,GuessTheSound,2020.2.10,Win32,60,,
,,,,ice in a glass,0,35,35,94,1,Initial/Repeat/IceDrop.wav,Extra,5e0613233ccda2ffaaeec5bd,001,2021-01-01_17h00.06.671,GuessTheSound,2020.2.10,Win32,60,,
,,,,stadium clacson,0,36,36,60,1,Test/Foils/Airhorn.wav,New,5e0613233ccda2ffaaeec5bd,001,2021-01-01_17h00.06.671,GuessTheSound,2020.2.10,Win32,60,,
,,,,,0,37,37,76,1,Test/Foils/Steam.wav,New,5e0613233ccda2ffaaeec5bd,001,2021-01-01_17h00.06.671,GuessTheSound,2020.2.10,Win32,60,,
,,,,cow mooing,0,38,38,22,1,Initial/NoRepeat/Cow.wav,NoRepeat,5e0613233ccda2ffaaeec5bd,001,2021-01-01_17h00.06.671,GuessTheSound,2020.2.10,Win32,60,,
,,,,printer reasoning,0,39,39,54,1,Initial/Repeat/Printer.wav,Repeat,5e0613233ccda2ffaaeec5bd,001,2021-01-01_17h00.06.671,GuessTheSound,2020.2.10,Win32,60,,
,,,,,0,40,40,65,1,Test/Foils/Bullfrog.wav,New,5e0613233ccda2ffaaeec5bd,001,2021-01-01_17h00.06.671,GuessTheSound,2020.2.10,Win32,60,,
,,,,crows,0,41,41,87,1,Initial/Repeat/Crow_B.wav,Extra,5e0613233ccda2ffaaeec5bd,001,2021-01-01_17h00.06.671,GuessTheSound,2020.2.10,Win32,60,,
,,,,horse walking,0,42,42,69,1,Test/Foils/Gallop.wav,New,5e0613233ccda2ffaaeec5bd,001,2021-01-01_17h00.06.671,GuessTheSound,2020.2.10,Win32,60,,
,,,,owl ,0,43,43,16,1,Initial/Doubled/Owl_A.wav,Doubled,5e0613233ccda2ffaaeec5bd,001,2021-01-01_17h00.06.671,GuessTheSound,2020.2.10,Win32,60,,
,,,,typing,0,44,44,77,1,Test/Foils/Typing.wav,New,5e0613233ccda2ffaaeec5bd,001,2021-01-01_17h00.06.671,GuessTheSound,2020.2.10,Win32,60,,
,,,,whistle,0,45,45,59,1,Initial/Repeat/Whistle_A.wav,Repeat,5e0613233ccda2ffaaeec5bd,001,2021-01-01_17h00.06.671,GuessTheSound,2020.2.10,Win32,60,,
,,,,,0,46,46,67,1,Test/Foils/Curtain.wav,New,5e0613233ccda2ffaaeec5bd,001,2021-01-01_17h00.06.671,GuessTheSound,2020.2.10,Win32,60,,
,,,,cat meowing,0,47,47,82,1,Initial/Doubled/Cat_A.wav,Extra,5e0613233ccda2ffaaeec5bd,001,2021-01-01_17h00.06.671,GuessTheSound,2020.2.10,Win32,60,,
,,,,elevator noise,0,48,48,8,1,Initial/Doubled/Doorchime_A.wav,Doubled,5e0613233ccda2ffaaeec5bd,001,2021-01-01_17h00.06.671,GuessTheSound,2020.2.10,Win32,60,,
,,,,,0,49,49,78,1,Test/Foils/Cards.wav,New,5e0613233ccda2ffaaeec5bd,001,2021-01-01_17h00.06.671,GuessTheSound,2020.2.10,Win32,60,,
,,,,,0,50,50,41,1,Initial/Repeat/Bat.wav,Repeat,5e0613233ccda2ffaaeec5bd,001,2021-01-01_17h00.06.671,GuessTheSound,2020.2.10,Win32,60,,
,,,,stuff falling in the distance,0,51,51,98,1,Initial/Doubled/Train_A.wav,Extra,5e0613233ccda2ffaaeec5bd,001,2021-01-01_17h00.06.671,GuessTheSound,2020.2.10,Win32,60,,
,,,,fireworks,0,52,52,28,1,Initial/NoRepeat/Fireworks.wav,NoRepeat,5e0613233ccda2ffaaeec5bd,001,2021-01-01_17h00.06.671,GuessTheSound,2020.2.10,Win32,60,,
,,,,phone ring,0,53,53,75,1,Test/Foils/Robot.wav,New,5e0613233ccda2ffaaeec5bd,001,2021-01-01_17h00.06.671,GuessTheSound,2020.2.10,Win32,60,,
,,,,wolf howling,0,54,54,48,1,Initial/Repeat/Howl.wav,Repeat,5e0613233ccda2ffaaeec5bd,001,2021-01-01_17h00.06.671,GuessTheSound,2020.2.10,Win32,60,,
,,,,plane passing,0,55,55,40,1,Initial/Repeat/Airplane_B.wav,Repeat,5e0613233ccda2ffaaeec5bd,001,2021-01-01_17h00.06.671,GuessTheSound,2020.2.10,Win32,60,,
,,,,crows,0,56,56,25,1,Initial/NoRepeat/Eagle_B.wav,NoRepeat,5e0613233ccda2ffaaeec5bd,001,2021-01-01_17h00.06.671,GuessTheSound,2020.2.10,Win32,60,,
,,,,christmas bells,0,57,57,37,1,Initial/NoRepeat/Sleighbells_B.wav,NoRepeat,5e0613233ccda2ffaaeec5bd,001,2021-01-01_17h00.06.671,GuessTheSound,2020.2.10,Win32,60,,
,,,,waterdrops,0,58,58,24,1,Initial/NoRepeat/Droplet_B.wav,NoRepeat,5e0613233ccda2ffaaeec5bd,001,2021-01-01_17h00.06.671,GuessTheSound,2020.2.10,Win32,60,,
,,,,motorcycle engine revving up,0,59,59,21,1,Initial/NoRepeat/Chainsaw_A.wav,NoRepeat,5e0613233ccda2ffaaeec5bd,001,2021-01-01_17h00.06.671,GuessTheSound,2020.2.10,Win32,60,,
,,,,,,,,,,,,5e0613233ccda2ffaaeec5bd,001,2021-01-01_17h00.06.671,GuessTheSound,2020.2.10,Win32,60,space,25.595
