WelcomeContinueKey2.keys,WelcomeContinueKey2.rt,VolumeContinueKey.keys,VolumeContinueKey.rt,ResponseBox.text,trials.thisRepN,trials.thisTrialN,trials.thisN,trials.thisIndex,trials.ran,SoundFiles,Type,participant,session,date,expName,psychopyVersion,OS,frameRate,ExitKey.keys,ExitKey.rt
space,3.748185,space,2.32422,car crash,0,0,0,73,1,Test/Foils/Kettle.wav,New,5e793ab51aff8103623757be,001,2021-01-05_15h19.13.292,GuessTheSound,2020.2.10,MacIntel,60,,
,,,,,0,1,1,51,1,Initial/Repeat/MetalBang.wav,Repeat,5e793ab51aff8103623757be,001,2021-01-05_15h19.13.292,GuessTheSound,2020.2.10,MacIntel,60,,
,,,,horse,0,2,2,72,1,Test/Foils/Horse.wav,New,5e793ab51aff8103623757be,001,2021-01-05_15h19.13.292,GuessTheSound,2020.2.10,MacIntel,60,,
,,,,helicopter,0,3,3,40,1,Initial/Repeat/Airplane_B.wav,Repeat,5e793ab51aff8103623757be,001,2021-01-05_15h19.13.292,GuessTheSound,2020.2.10,MacIntel,60,,
,,,,cylinder,0,4,4,45,1,Initial/Repeat/Cymbal_A.wav,Repeat,5e793ab51aff8103623757be,001,2021-01-05_15h19.13.292,GuessTheSound,2020.2.10,MacIntel,60,,
,,,,mosquito,0,5,5,32,1,Initial/NoRepeat/Mosquito_B.wav,NoRepeat,5e793ab51aff8103623757be,001,2021-01-05_15h19.13.292,GuessTheSound,2020.2.10,MacIntel,60,,
,,,,phone ringing,0,6,6,52,1,Initial/Repeat/Phone_A.wav,Repeat,5e793ab51aff8103623757be,001,2021-01-05_15h19.13.292,GuessTheSound,2020.2.10,MacIntel,60,,
,,,,toilet flushing,0,7,7,23,1,Initial/NoRepeat/Toilet_B.wav,NoRepeat,5e793ab51aff8103623757be,001,2021-01-05_15h19.13.292,GuessTheSound,2020.2.10,MacIntel,60,,
,,,,scratching,0,8,8,64,1,Test/Foils/Brushing.wav,New,5e793ab51aff8103623757be,001,2021-01-05_15h19.13.292,GuessTheSound,2020.2.10,MacIntel,60,,
,,,,galloping,0,9,9,69,1,Test/Foils/Gallop.wav,New,5e793ab51aff8103623757be,001,2021-01-05_15h19.13.292,GuessTheSound,2020.2.10,MacIntel,60,,
,,,,engine starting,0,10,10,81,1,Initial/Doubled/CarStart_A.wav,Extra,5e793ab51aff8103623757be,001,2021-01-05_15h19.13.292,GuessTheSound,2020.2.10,MacIntel,60,,
,,,,wolf howling,0,11,11,48,1,Initial/Repeat/Howl.wav,Repeat,5e793ab51aff8103623757be,001,2021-01-05_15h19.13.292,GuessTheSound,2020.2.10,MacIntel,60,,
,,,,,0,12,12,15,1,Initial/Doubled/Laugh_A.wav,Doubled,5e793ab51aff8103623757be,001,2021-01-05_15h19.13.292,GuessTheSound,2020.2.10,MacIntel,60,,
,,,,church bell,0,13,13,2,1,Initial/Doubled/Chime_A.wav,Doubled,5e793ab51aff8103623757be,001,2021-01-05_15h19.13.292,GuessTheSound,2020.2.10,MacIntel,60,,
,,,,goat,0,14,14,30,1,Initial/NoRepeat/Goat_B.wav,NoRepeat,5e793ab51aff8103623757be,001,2021-01-05_15h19.13.292,GuessTheSound,2020.2.10,MacIntel,60,,
,,,,helicopter,0,15,15,93,1,Initial/NoRepeat/Helicopter_A.wav,Extra,5e793ab51aff8103623757be,001,2021-01-05_15h19.13.292,GuessTheSound,2020.2.10,MacIntel,60,,
,,,,camera clicking,0,16,16,80,1,Test/Foils/Camera.wav,Extra,5e793ab51aff8103623757be,001,2021-01-05_15h19.13.292,GuessTheSound,2020.2.10,MacIntel,60,,
,,,,bird gawking,0,17,17,87,1,Initial/Repeat/Crow_B.wav,Extra,5e793ab51aff8103623757be,001,2021-01-05_15h19.13.292,GuessTheSound,2020.2.10,MacIntel,60,,
,,,,faucet,0,18,18,27,1,Initial/NoRepeat/Faucet_A.wav,NoRepeat,5e793ab51aff8103623757be,001,2021-01-05_15h19.13.292,GuessTheSound,2020.2.10,MacIntel,60,,
,,,,,0,19,19,67,1,Test/Foils/Curtain.wav,New,5e793ab51aff8103623757be,001,2021-01-05_15h19.13.292,GuessTheSound,2020.2.10,MacIntel,60,,
,,,,drums,0,20,20,46,1,Initial/Repeat/Drum_B.wav,Repeat,5e793ab51aff8103623757be,001,2021-01-05_15h19.13.292,GuessTheSound,2020.2.10,MacIntel,60,,
,,,,seal,0,21,21,55,1,Initial/Repeat/Sealion.wav,Repeat,5e793ab51aff8103623757be,001,2021-01-05_15h19.13.292,GuessTheSound,2020.2.10,MacIntel,60,,
,,,,thunder,0,22,22,39,1,Initial/NoRepeat/Thunder_A.wav,NoRepeat,5e793ab51aff8103623757be,001,2021-01-05_15h19.13.292,GuessTheSound,2020.2.10,MacIntel,60,,
,,,,horn,0,23,23,58,1,Initial/Repeat/Trumpet_B.wav,Repeat,5e793ab51aff8103623757be,001,2021-01-05_15h19.13.292,GuessTheSound,2020.2.10,MacIntel,60,,
,,,,owl,0,24,24,16,1,Initial/Doubled/Owl_A.wav,Doubled,5e793ab51aff8103623757be,001,2021-01-05_15h19.13.292,GuessTheSound,2020.2.10,MacIntel,60,,
,,,,cow,0,25,25,22,1,Initial/NoRepeat/Cow.wav,NoRepeat,5e793ab51aff8103623757be,001,2021-01-05_15h19.13.292,GuessTheSound,2020.2.10,MacIntel,60,,
,,,,recorder,0,26,26,70,1,Test/Foils/Harmonica.wav,New,5e793ab51aff8103623757be,001,2021-01-05_15h19.13.292,GuessTheSound,2020.2.10,MacIntel,60,,
,,,,,0,27,27,54,1,Initial/Repeat/Printer.wav,Repeat,5e793ab51aff8103623757be,001,2021-01-05_15h19.13.292,GuessTheSound,2020.2.10,MacIntel,60,,
,,,,chicken,0,28,28,1,1,Initial/Doubled/Chicken_A.wav,Doubled,5e793ab51aff8103623757be,001,2021-01-05_15h19.13.292,GuessTheSound,2020.2.10,MacIntel,60,,
,,,,harp,0,29,29,14,1,Initial/Doubled/Harp_A.wav,Doubled,5e793ab51aff8103623757be,001,2021-01-05_15h19.13.292,GuessTheSound,2020.2.10,MacIntel,60,,
,,,,,0,30,30,84,1,Initial/Doubled/Clock_A.wav,Extra,5e793ab51aff8103623757be,001,2021-01-05_15h19.13.292,GuessTheSound,2020.2.10,MacIntel,60,,
,,,,heartbeat,0,31,31,71,1,Test/Foils/Heartbeat.wav,New,5e793ab51aff8103623757be,001,2021-01-05_15h19.13.292,GuessTheSound,2020.2.10,MacIntel,60,,
,,,,,0,32,32,42,1,Initial/Repeat/Bagpipe.wav,Repeat,5e793ab51aff8103623757be,001,2021-01-05_15h19.13.292,GuessTheSound,2020.2.10,MacIntel,60,,
,,,,trumpet,0,33,33,74,1,Test/Foils/PartyHorn.wav,New,5e793ab51aff8103623757be,001,2021-01-05_15h19.13.292,GuessTheSound,2020.2.10,MacIntel,60,,
,,,,phone line,0,34,34,88,1,Test/Foils/DialTone.wav,Extra,5e793ab51aff8103623757be,001,2021-01-05_15h19.13.292,GuessTheSound,2020.2.10,MacIntel,60,,
,,,,person whistling,0,35,35,50,1,Initial/Repeat/ManWhistle.wav,Repeat,5e793ab51aff8103623757be,001,2021-01-05_15h19.13.292,GuessTheSound,2020.2.10,MacIntel,60,,
,,,,cat,0,36,36,82,1,Initial/Doubled/Cat_A.wav,Extra,5e793ab51aff8103623757be,001,2021-01-05_15h19.13.292,GuessTheSound,2020.2.10,MacIntel,60,,
,,,,,0,37,37,37,1,Initial/NoRepeat/Sleighbells_B.wav,NoRepeat,5e793ab51aff8103623757be,001,2021-01-05_15h19.13.292,GuessTheSound,2020.2.10,MacIntel,60,,
,,,,door creaking,0,38,38,86,1,Initial/Doubled/Creak.wav,Extra,5e793ab51aff8103623757be,001,2021-01-05_15h19.13.292,GuessTheSound,2020.2.10,MacIntel,60,,
,,,,slurping,0,39,39,97,1,Test/Foils/Slurp.wav,Extra,5e793ab51aff8103623757be,001,2021-01-05_15h19.13.292,GuessTheSound,2020.2.10,MacIntel,60,,
,,,,bowling,0,40,40,63,1,Test/Foils/Bowlingpins.wav,New,5e793ab51aff8103623757be,001,2021-01-05_15h19.13.292,GuessTheSound,2020.2.10,MacIntel,60,,
,,,,,0,41,41,60,1,Test/Foils/Airhorn.wav,New,5e793ab51aff8103623757be,001,2021-01-05_15h19.13.292,GuessTheSound,2020.2.10,MacIntel,60,,
,,,,violin,0,42,42,43,1,Initial/Repeat/Cello.wav,Repeat,5e793ab51aff8103623757be,001,2021-01-05_15h19.13.292,GuessTheSound,2020.2.10,MacIntel,60,,
,,,,,0,43,43,62,1,Test/Foils/Bird.wav,New,5e793ab51aff8103623757be,001,2021-01-05_15h19.13.292,GuessTheSound,2020.2.10,MacIntel,60,,
,,,,audience clapping,0,44,44,3,1,Initial/Doubled/Clap_A.wav,Doubled,5e793ab51aff8103623757be,001,2021-01-05_15h19.13.292,GuessTheSound,2020.2.10,MacIntel,60,,
,,,,,0,45,45,8,1,Initial/Doubled/Doorchime_A.wav,Doubled,5e793ab51aff8103623757be,001,2021-01-05_15h19.13.292,GuessTheSound,2020.2.10,MacIntel,60,,
,,,,gargling water,0,46,46,10,1,Initial/Doubled/Gargle_A.wav,Doubled,5e793ab51aff8103623757be,001,2021-01-05_15h19.13.292,GuessTheSound,2020.2.10,MacIntel,60,,
,,,,writing using a chalk ,0,47,47,99,1,Initial/Doubled/Writing_A.wav,Extra,5e793ab51aff8103623757be,001,2021-01-05_15h19.13.292,GuessTheSound,2020.2.10,MacIntel,60,,
,,,,bubbles,0,48,48,0,1,Initial/Doubled/Bubbles_A.wav,Doubled,5e793ab51aff8103623757be,001,2021-01-05_15h19.13.292,GuessTheSound,2020.2.10,MacIntel,60,,
,,,,,0,49,49,78,1,Test/Foils/Cards.wav,New,5e793ab51aff8103623757be,001,2021-01-05_15h19.13.292,GuessTheSound,2020.2.10,MacIntel,60,,
,,,,motorcycle,0,50,50,21,1,Initial/NoRepeat/Chainsaw_A.wav,NoRepeat,5e793ab51aff8103623757be,001,2021-01-05_15h19.13.292,GuessTheSound,2020.2.10,MacIntel,60,,
,,,,,0,51,51,76,1,Test/Foils/Steam.wav,New,5e793ab51aff8103623757be,001,2021-01-05_15h19.13.292,GuessTheSound,2020.2.10,MacIntel,60,,
,,,,dinosaur,0,52,52,26,1,Initial/NoRepeat/Elephant_A.wav,NoRepeat,5e793ab51aff8103623757be,001,2021-01-05_15h19.13.292,GuessTheSound,2020.2.10,MacIntel,60,,
,,,,,0,53,53,44,1,Initial/Repeat/Cicade.wav,Repeat,5e793ab51aff8103623757be,001,2021-01-05_15h19.13.292,GuessTheSound,2020.2.10,MacIntel,60,,
,,,,,0,54,54,53,1,Initial/Repeat/Pingpong.wav,Repeat,5e793ab51aff8103623757be,001,2021-01-05_15h19.13.292,GuessTheSound,2020.2.10,MacIntel,60,,
,,,,,0,55,55,75,1,Test/Foils/Robot.wav,New,5e793ab51aff8103623757be,001,2021-01-05_15h19.13.292,GuessTheSound,2020.2.10,MacIntel,60,,
,,,,,0,56,56,9,1,Initial/Doubled/Piano_A.wav,Doubled,5e793ab51aff8103623757be,001,2021-01-05_15h19.13.292,GuessTheSound,2020.2.10,MacIntel,60,,
,,,,glass flipping,0,57,57,47,1,Initial/Repeat/Cup.wav,Repeat,5e793ab51aff8103623757be,001,2021-01-05_15h19.13.292,GuessTheSound,2020.2.10,MacIntel,60,,
,,,,frog,0,58,58,89,1,Initial/NoRepeat/Duck_A.wav,Extra,5e793ab51aff8103623757be,001,2021-01-05_15h19.13.292,GuessTheSound,2020.2.10,MacIntel,60,,
,,,,,0,59,59,35,1,Initial/NoRepeat/Saw_A.wav,NoRepeat,5e793ab51aff8103623757be,001,2021-01-05_15h19.13.292,GuessTheSound,2020.2.10,MacIntel,60,,
,,,,,,,,,,,,5e793ab51aff8103623757be,001,2021-01-05_15h19.13.292,GuessTheSound,2020.2.10,MacIntel,60,space,9.6618
