VolumeContinueKey.keys,VolumeContinueKey.rt,HeadphoneContinueKey.keys,HeadphoneContinueKey.rt,CheckResp.keys,CheckResp.corr,CheckResp.rt,HeadphoneLoop.thisRepN,HeadphoneLoop.thisTrialN,HeadphoneLoop.thisN,HeadphoneLoop.thisIndex,HeadphoneLoop.ran,File,Correct,participant,session,date,expName,psychopyVersion,OS,frameRate,ContinueResp.keys,ContinueResp.rt,Wel2ContinueKey.keys,Wel2ContinueKey.rt,WelcomeContinueKey2.keys,WelcomeContinueKey2.rt,Practice_resp.keys,Practice_resp.corr,Practice_resp.rt,PracticeTrials.thisRepN,PracticeTrials.thisTrialN,PracticeTrials.thisN,PracticeTrials.thisIndex,PracticeTrials.ran,SoundFile,Correct2,Type,Trial,StartTast.keys,StartTast.rt,MSTResp.keys,MSTResp.corr,MSTResp.rt,trials.thisRepN,trials.thisTrialN,trials.thisN,trials.thisIndex,trials.ran,ExitKey.keys,ExitKey.rt
space,0.734,space,0.941,2,1,0.432,0,0,0,3,1,Headphone/t2_2.wav,2,5e9757d83b0f220c5a60777d,001,2021-02-28_18h01.10.005,GuessTheSound,2020.2.10,Win32,60,,,,,,,,,,,,,,,,,,,,,,,,,,,,,,
,,,,2,1,0.15,0,1,1,2,1,Headphone/t2_1.wav,2,5e9757d83b0f220c5a60777d,001,2021-02-28_18h01.10.005,GuessTheSound,2020.2.10,Win32,60,,,,,,,,,,,,,,,,,,,,,,,,,,,,,,
,,,,1,1,0.575,0,2,2,0,1,Headphone/t1_1.wav,1,5e9757d83b0f220c5a60777d,001,2021-02-28_18h01.10.005,GuessTheSound,2020.2.10,Win32,60,,,,,,,,,,,,,,,,,,,,,,,,,,,,,,
,,,,3,1,1.251,0,3,3,4,1,Headphone/t3_1.wav,3,5e9757d83b0f220c5a60777d,001,2021-02-28_18h01.10.005,GuessTheSound,2020.2.10,Win32,60,,,,,,,,,,,,,,,,,,,,,,,,,,,,,,
,,,,1,1,0.322,0,4,4,1,1,Headphone/t1_2.wav,1,5e9757d83b0f220c5a60777d,001,2021-02-28_18h01.10.005,GuessTheSound,2020.2.10,Win32,60,,,,,,,,,,,,,,,,,,,,,,,,,,,,,,
,,,,3,1,0.285,0,5,5,5,1,Headphone/t3_2.wav,3,5e9757d83b0f220c5a60777d,001,2021-02-28_18h01.10.005,GuessTheSound,2020.2.10,Win32,60,,,,,,,,,,,,,,,,,,,,,,,,,,,,,,
,,,,,,,,,,,,,2,5e9757d83b0f220c5a60777d,001,2021-02-28_18h01.10.005,GuessTheSound,2020.2.10,Win32,60,space,36.279,space,33.977,space,2.873,3,1,3.766,0,0,0,0,1,Practice/Seagull_A.wav,3,NEW,Practice,,,,,,,,,,,,
,,,,,,,,,,,,,2,5e9757d83b0f220c5a60777d,001,2021-02-28_18h01.10.005,GuessTheSound,2020.2.10,Win32,60,,,,,,,3,1,1.069,0,1,1,1,1,Practice/Skid_B.wav,3,NEW,Practice,,,,,,,,,,,,
,,,,,,,,,,,,,1,5e9757d83b0f220c5a60777d,001,2021-02-28_18h01.10.005,GuessTheSound,2020.2.10,Win32,60,,,,,,,1,1,2.895,0,2,2,2,1,Practice/Seagull_A.wav,1,OLD,Practice,,,,,,,,,,,,
,,,,,,,,,,,,,2,5e9757d83b0f220c5a60777d,001,2021-02-28_18h01.10.005,GuessTheSound,2020.2.10,Win32,60,,,,,,,3,1,2.352,0,3,3,3,1,Practice/Gargle_A.wav,3,NEW,Practice,,,,,,,,,,,,
,,,,,,,,,,,,,2,5e9757d83b0f220c5a60777d,001,2021-02-28_18h01.10.005,GuessTheSound,2020.2.10,Win32,60,,,,,,,2,1,1.216,0,4,4,4,1,Practice/Gargle_B.wav,2,SIMILAR,Practice,,,,,,,,,,,,
,,,,,,,,,,,,,2,5e9757d83b0f220c5a60777d,001,2021-02-28_18h01.10.005,GuessTheSound,2020.2.10,Win32,60,,,,,,,,,,,,,,,Siren_E.wav,3,NEW,B,space,21.584,3,1,3.911,0,0,0,0,1,,
,,,,,,,,,,,,,2,5e9757d83b0f220c5a60777d,001,2021-02-28_18h01.10.005,GuessTheSound,2020.2.10,Win32,60,,,,,,,,,,,,,,,Initial/Repeat/ManWhistle.wav,3,NEW,B,,,3,1,0.901,0,1,1,1,1,,
,,,,,,,,,,,,,2,5e9757d83b0f220c5a60777d,001,2021-02-28_18h01.10.005,GuessTheSound,2020.2.10,Win32,60,,,,,,,,,,,,,,,Footsteps_E.wav,3,NEW,B,,,3,1,0.842,0,2,2,2,1,,
,,,,,,,,,,,,,2,5e9757d83b0f220c5a60777d,001,2021-02-28_18h01.10.005,GuessTheSound,2020.2.10,Win32,60,,,,,,,,,,,,,,,Initial/Doubled/Chicken_A.wav,3,NEW,B,,,3,1,0.684,0,3,3,3,1,,
,,,,,,,,,,,,,2,5e9757d83b0f220c5a60777d,001,2021-02-28_18h01.10.005,GuessTheSound,2020.2.10,Win32,60,,,,,,,,,,,,,,,Phone_D.wav,3,NEW,B,,,3,1,0.682,0,4,4,4,1,,
,,,,,,,,,,,,,2,5e9757d83b0f220c5a60777d,001,2021-02-28_18h01.10.005,GuessTheSound,2020.2.10,Win32,60,,,,,,,,,,,,,,,Initial/Repeat/Cup.wav,3,NEW,B,,,3,1,0.751,0,5,5,5,1,,
,,,,,,,,,,,,,2,5e9757d83b0f220c5a60777d,001,2021-02-28_18h01.10.005,GuessTheSound,2020.2.10,Win32,60,,,,,,,,,,,,,,,Test/Foils/Bowlingpins.wav,3,NEW,B,,,3,1,0.405,0,6,6,6,1,,
,,,,,,,,,,,,,2,5e9757d83b0f220c5a60777d,001,2021-02-28_18h01.10.005,GuessTheSound,2020.2.10,Win32,60,,,,,,,,,,,,,,,Bird_D.wav,3,NEW,B,,,3,1,0.668,0,7,7,7,1,,
,,,,,,,,,,,,,2,5e9757d83b0f220c5a60777d,001,2021-02-28_18h01.10.005,GuessTheSound,2020.2.10,Win32,60,,,,,,,,,,,,,,,Initial/Doubled/HairDryer_A.wav,3,NEW,B,,,3,1,0.35,0,8,8,8,1,,
,,,,,,,,,,,,,2,5e9757d83b0f220c5a60777d,001,2021-02-28_18h01.10.005,GuessTheSound,2020.2.10,Win32,60,,,,,,,,,,,,,,,Faucet_A.wav,3,NEW,B,,,3,1,0.404,0,9,9,9,1,,
,,,,,,,,,,,,,2,5e9757d83b0f220c5a60777d,001,2021-02-28_18h01.10.005,GuessTheSound,2020.2.10,Win32,60,,,,,,,,,,,,,,,Siren_B.wav,2,SIMILAR,B,,,2,1,2.384,0,10,10,10,1,,
,,,,,,,,,,,,,2,5e9757d83b0f220c5a60777d,001,2021-02-28_18h01.10.005,GuessTheSound,2020.2.10,Win32,60,,,,,,,,,,,,,,,Initial/Doubled/Laugh_A.wav,3,NEW,B,,,3,1,0.553,0,11,11,11,1,,
,,,,,,,,,,,,,1,5e9757d83b0f220c5a60777d,001,2021-02-28_18h01.10.005,GuessTheSound,2020.2.10,Win32,60,,,,,,,,,,,,,,,Initial/Repeat/ManWhistle.wav,1,OLD,B,,,1,1,0.85,0,12,12,12,1,,
,,,,,,,,,,,,,2,5e9757d83b0f220c5a60777d,001,2021-02-28_18h01.10.005,GuessTheSound,2020.2.10,Win32,60,,,,,,,,,,,,,,,Initial/NoRepeat/Cow.wav,3,NEW,B,,,3,1,0.468,0,13,13,13,1,,
,,,,,,,,,,,,,2,5e9757d83b0f220c5a60777d,001,2021-02-28_18h01.10.005,GuessTheSound,2020.2.10,Win32,60,,,,,,,,,,,,,,,Cough_A.wav,3,NEW,B,,,3,1,0.556,0,14,14,14,1,,
,,,,,,,,,,,,,2,5e9757d83b0f220c5a60777d,001,2021-02-28_18h01.10.005,GuessTheSound,2020.2.10,Win32,60,,,,,,,,,,,,,,,Initial/Repeat/Phone_A.wav,2,SIMILAR,B,,,1,0,0.907,0,15,15,15,1,,
,,,,,,,,,,,,,2,5e9757d83b0f220c5a60777d,001,2021-02-28_18h01.10.005,GuessTheSound,2020.2.10,Win32,60,,,,,,,,,,,,,,,Test/Lures/Chime_B.wav,3,NEW,B,,,3,1,0.626,0,16,16,16,1,,
,,,,,,,,,,,,,2,5e9757d83b0f220c5a60777d,001,2021-02-28_18h01.10.005,GuessTheSound,2020.2.10,Win32,60,,,,,,,,,,,,,,,Footsteps_F.wav,2,SIMILAR,B,,,3,0,0.501,0,17,17,17,1,,
,,,,,,,,,,,,,2,5e9757d83b0f220c5a60777d,001,2021-02-28_18h01.10.005,GuessTheSound,2020.2.10,Win32,60,,,,,,,,,,,,,,,Initial/NoRepeat/Toilet_B.wav,3,NEW,B,,,3,1,0.333,0,18,18,18,1,,
,,,,,,,,,,,,,2,5e9757d83b0f220c5a60777d,001,2021-02-28_18h01.10.005,GuessTheSound,2020.2.10,Win32,60,,,,,,,,,,,,,,,Piano_D.wav,3,NEW,B,,,3,1,0.485,0,19,19,19,1,,
,,,,,,,,,,,,,1,5e9757d83b0f220c5a60777d,001,2021-02-28_18h01.10.005,GuessTheSound,2020.2.10,Win32,60,,,,,,,,,,,,,,,Initial/Repeat/Cup.wav,1,OLD,B,,,1,1,1.034,0,20,20,20,1,,
,,,,,,,,,,,,,1,5e9757d83b0f220c5a60777d,001,2021-02-28_18h01.10.005,GuessTheSound,2020.2.10,Win32,60,,,,,,,,,,,,,,,Initial/Doubled/HairDryer_A.wav,1,OLD,B,,,1,1,0.317,0,21,21,21,1,,
,,,,,,,,,,,,,2,5e9757d83b0f220c5a60777d,001,2021-02-28_18h01.10.005,GuessTheSound,2020.2.10,Win32,60,,,,,,,,,,,,,,,Initial/NoRepeat/Thunder_A.wav,3,NEW,B,,,3,1,0.737,0,22,22,22,1,,
,,,,,,,,,,,,,1,5e9757d83b0f220c5a60777d,001,2021-02-28_18h01.10.005,GuessTheSound,2020.2.10,Win32,60,,,,,,,,,,,,,,,Initial/Doubled/Chicken_A.wav,1,OLD,B,,,1,1,1.135,0,23,23,23,1,,
,,,,,,,,,,,,,2,5e9757d83b0f220c5a60777d,001,2021-02-28_18h01.10.005,GuessTheSound,2020.2.10,Win32,60,,,,,,,,,,,,,,,Whistle_A.wav,3,NEW,B,,,3,1,0.51,0,24,24,24,1,,
,,,,,,,,,,,,,2,5e9757d83b0f220c5a60777d,001,2021-02-28_18h01.10.005,GuessTheSound,2020.2.10,Win32,60,,,,,,,,,,,,,,,Chick_A.wav,2,SIMILAR,B,,,2,1,1.885,0,25,25,25,1,,
,,,,,,,,,,,,,2,5e9757d83b0f220c5a60777d,001,2021-02-28_18h01.10.005,GuessTheSound,2020.2.10,Win32,60,,,,,,,,,,,,,,,Dog_E.wav,3,NEW,B,,,3,1,0.52,0,26,26,26,1,,
,,,,,,,,,,,,,1,5e9757d83b0f220c5a60777d,001,2021-02-28_18h01.10.005,GuessTheSound,2020.2.10,Win32,60,,,,,,,,,,,,,,,Test/Foils/Bowlingpins.wav,1,OLD,B,,,1,1,0.875,0,27,27,27,1,,
,,,,,,,,,,,,,2,5e9757d83b0f220c5a60777d,001,2021-02-28_18h01.10.005,GuessTheSound,2020.2.10,Win32,60,,,,,,,,,,,,,,,Initial/NoRepeat/Fireworks.wav,3,NEW,B,,,3,1,1.226,0,28,28,28,1,,
,,,,,,,,,,,,,1,5e9757d83b0f220c5a60777d,001,2021-02-28_18h01.10.005,GuessTheSound,2020.2.10,Win32,60,,,,,,,,,,,,,,,Initial/NoRepeat/Cow.wav,1,OLD,B,,,1,1,1.918,0,29,29,29,1,,
,,,,,,,,,,,,,2,5e9757d83b0f220c5a60777d,001,2021-02-28_18h01.10.005,GuessTheSound,2020.2.10,Win32,60,,,,,,,,,,,,,,,Snore_D.wav,3,NEW,B,,,3,1,0.354,0,30,30,30,1,,
,,,,,,,,,,,,,2,5e9757d83b0f220c5a60777d,001,2021-02-28_18h01.10.005,GuessTheSound,2020.2.10,Win32,60,,,,,,,,,,,,,,,Faucet_C.wav,2,SIMILAR,B,,,3,0,0.851,0,31,31,31,1,,
,,,,,,,,,,,,,2,5e9757d83b0f220c5a60777d,001,2021-02-28_18h01.10.005,GuessTheSound,2020.2.10,Win32,60,,,,,,,,,,,,,,,Initial/Doubled/Chime_A.wav,2,SIMILAR,B,,,2,1,0.804,0,32,32,32,1,,
,,,,,,,,,,,,,2,5e9757d83b0f220c5a60777d,001,2021-02-28_18h01.10.005,GuessTheSound,2020.2.10,Win32,60,,,,,,,,,,,,,,,Cough_E.wav,2,SIMILAR,B,,,1,0,0.783,0,33,33,33,1,,
,,,,,,,,,,,,,2,5e9757d83b0f220c5a60777d,001,2021-02-28_18h01.10.005,GuessTheSound,2020.2.10,Win32,60,,,,,,,,,,,,,,,Test/Foils/Heartbeat.wav,3,NEW,B,,,3,1,0.918,0,34,34,34,1,,
,,,,,,,,,,,,,2,5e9757d83b0f220c5a60777d,001,2021-02-28_18h01.10.005,GuessTheSound,2020.2.10,Win32,60,,,,,,,,,,,,,,,Laugh_D.wav,2,SIMILAR,B,,,2,1,1.633,0,35,35,35,1,,
,,,,,,,,,,,,,2,5e9757d83b0f220c5a60777d,001,2021-02-28_18h01.10.005,GuessTheSound,2020.2.10,Win32,60,,,,,,,,,,,,,,,Initial/Repeat/Cello.wav,3,NEW,B,,,3,1,0.638,0,36,36,36,1,,
,,,,,,,,,,,,,1,5e9757d83b0f220c5a60777d,001,2021-02-28_18h01.10.005,GuessTheSound,2020.2.10,Win32,60,,,,,,,,,,,,,,,Piano_D.wav,1,OLD,B,,,1,1,0.751,0,37,37,37,1,,
,,,,,,,,,,,,,2,5e9757d83b0f220c5a60777d,001,2021-02-28_18h01.10.005,GuessTheSound,2020.2.10,Win32,60,,,,,,,,,,,,,,,Clap_B.wav,3,NEW,B,,,1,0,3.091,0,38,38,38,1,,
,,,,,,,,,,,,,2,5e9757d83b0f220c5a60777d,001,2021-02-28_18h01.10.005,GuessTheSound,2020.2.10,Win32,60,,,,,,,,,,,,,,,Initial/Repeat/Bagpipe.wav,3,NEW,B,,,3,1,0.97,0,39,39,39,1,,
,,,,,,,,,,,,,2,5e9757d83b0f220c5a60777d,001,2021-02-28_18h01.10.005,GuessTheSound,2020.2.10,Win32,60,,,,,,,,,,,,,,,Growl_E.wav,3,NEW,B,,,3,1,0.368,0,40,40,40,1,,
,,,,,,,,,,,,,2,5e9757d83b0f220c5a60777d,001,2021-02-28_18h01.10.005,GuessTheSound,2020.2.10,Win32,60,,,,,,,,,,,,,,,Initial/Repeat/Airplane_B.wav,3,NEW,B,,,3,1,0.486,0,41,41,41,1,,
,,,,,,,,,,,,,1,5e9757d83b0f220c5a60777d,001,2021-02-28_18h01.10.005,GuessTheSound,2020.2.10,Win32,60,,,,,,,,,,,,,,,Initial/NoRepeat/Toilet_B.wav,1,OLD,B,,,1,1,0.769,0,42,42,42,1,,
,,,,,,,,,,,,,2,5e9757d83b0f220c5a60777d,001,2021-02-28_18h01.10.005,GuessTheSound,2020.2.10,Win32,60,,,,,,,,,,,,,,,Initial/NoRepeat/Hammer_A.wav,3,NEW,B,,,3,1,0.634,0,43,43,43,1,,
,,,,,,,,,,,,,2,5e9757d83b0f220c5a60777d,001,2021-02-28_18h01.10.005,GuessTheSound,2020.2.10,Win32,60,,,,,,,,,,,,,,,Goat_D.wav,3,NEW,B,,,3,1,0.67,0,44,44,44,1,,
,,,,,,,,,,,,,2,5e9757d83b0f220c5a60777d,001,2021-02-28_18h01.10.005,GuessTheSound,2020.2.10,Win32,60,,,,,,,,,,,,,,,Coin_D.wav,3,NEW,B,,,2,0,0.923,0,45,45,45,1,,
,,,,,,,,,,,,,1,5e9757d83b0f220c5a60777d,001,2021-02-28_18h01.10.005,GuessTheSound,2020.2.10,Win32,60,,,,,,,,,,,,,,,Initial/NoRepeat/Fireworks.wav,1,OLD,B,,,1,1,0.535,0,46,46,46,1,,
,,,,,,,,,,,,,2,5e9757d83b0f220c5a60777d,001,2021-02-28_18h01.10.005,GuessTheSound,2020.2.10,Win32,60,,,,,,,,,,,,,,,Test/Foils/Donkey.wav,3,NEW,B,,,3,1,0.391,0,47,47,47,1,,
,,,,,,,,,,,,,2,5e9757d83b0f220c5a60777d,001,2021-02-28_18h01.10.005,GuessTheSound,2020.2.10,Win32,60,,,,,,,,,,,,,,,Initial/Repeat/Howl.wav,3,NEW,B,,,3,1,0.364,0,48,48,48,1,,
,,,,,,,,,,,,,1,5e9757d83b0f220c5a60777d,001,2021-02-28_18h01.10.005,GuessTheSound,2020.2.10,Win32,60,,,,,,,,,,,,,,,Initial/NoRepeat/Thunder_A.wav,1,OLD,B,,,1,1,0.742,0,49,49,49,1,,
,,,,,,,,,,,,,2,5e9757d83b0f220c5a60777d,001,2021-02-28_18h01.10.005,GuessTheSound,2020.2.10,Win32,60,,,,,,,,,,,,,,,Whistle_C.wav,2,SIMILAR,B,,,2,1,0.408,0,50,50,50,1,,
,,,,,,,,,,,,,2,5e9757d83b0f220c5a60777d,001,2021-02-28_18h01.10.005,GuessTheSound,2020.2.10,Win32,60,,,,,,,,,,,,,,,Initial/NoRepeat/Helicopter_A.wav,3,NEW,B,,,3,1,0.6,0,51,51,51,1,,
,,,,,,,,,,,,,2,5e9757d83b0f220c5a60777d,001,2021-02-28_18h01.10.005,GuessTheSound,2020.2.10,Win32,60,,,,,,,,,,,,,,,Dog_F.wav,2,SIMILAR,B,,,2,1,2.285,0,52,52,52,1,,
,,,,,,,,,,,,,2,5e9757d83b0f220c5a60777d,001,2021-02-28_18h01.10.005,GuessTheSound,2020.2.10,Win32,60,,,,,,,,,,,,,,,Test/Foils/Horse.wav,3,NEW,B,,,3,1,0.255,0,53,53,53,1,,
,,,,,,,,,,,,,2,5e9757d83b0f220c5a60777d,001,2021-02-28_18h01.10.005,GuessTheSound,2020.2.10,Win32,60,,,,,,,,,,,,,,,Initial/Doubled/Chomp_A.wav,3,NEW,B,,,3,1,0.472,0,54,54,54,1,,
,,,,,,,,,,,,,1,5e9757d83b0f220c5a60777d,001,2021-02-28_18h01.10.005,GuessTheSound,2020.2.10,Win32,60,,,,,,,,,,,,,,,Test/Foils/Heartbeat.wav,1,OLD,B,,,1,1,0.82,0,55,55,55,1,,
,,,,,,,,,,,,,2,5e9757d83b0f220c5a60777d,001,2021-02-28_18h01.10.005,GuessTheSound,2020.2.10,Win32,60,,,,,,,,,,,,,,,Clap_C.wav,2,SIMILAR,B,,,2,1,1.785,0,56,56,56,1,,
,,,,,,,,,,,,,2,5e9757d83b0f220c5a60777d,001,2021-02-28_18h01.10.005,GuessTheSound,2020.2.10,Win32,60,,,,,,,,,,,,,,,Crow_B.wav,3,NEW,B,,,3,1,0.675,0,57,57,57,1,,
,,,,,,,,,,,,,2,5e9757d83b0f220c5a60777d,001,2021-02-28_18h01.10.005,GuessTheSound,2020.2.10,Win32,60,,,,,,,,,,,,,,,Growl_F.wav,2,SIMILAR,B,,,1,0,1.173,0,58,58,58,1,,
,,,,,,,,,,,,,2,5e9757d83b0f220c5a60777d,001,2021-02-28_18h01.10.005,GuessTheSound,2020.2.10,Win32,60,,,,,,,,,,,,,,,Initial/Repeat/Printer.wav,3,NEW,B,,,3,1,1.554,0,59,59,59,1,,
,,,,,,,,,,,,,1,5e9757d83b0f220c5a60777d,001,2021-02-28_18h01.10.005,GuessTheSound,2020.2.10,Win32,60,,,,,,,,,,,,,,,Initial/Repeat/Cello.wav,1,OLD,B,,,1,1,0.786,0,60,60,60,1,,
,,,,,,,,,,,,,2,5e9757d83b0f220c5a60777d,001,2021-02-28_18h01.10.005,GuessTheSound,2020.2.10,Win32,60,,,,,,,,,,,,,,,Snore_C.wav,2,SIMILAR,B,,,2,1,1.118,0,61,61,61,1,,
,,,,,,,,,,,,,2,5e9757d83b0f220c5a60777d,001,2021-02-28_18h01.10.005,GuessTheSound,2020.2.10,Win32,60,,,,,,,,,,,,,,,CarStart_F.wav,3,NEW,B,,,1,0,0.368,0,62,62,62,1,,
,,,,,,,,,,,,,2,5e9757d83b0f220c5a60777d,001,2021-02-28_18h01.10.005,GuessTheSound,2020.2.10,Win32,60,,,,,,,,,,,,,,,Goat_C.wav,2,SIMILAR,B,,,2,1,0.572,0,63,63,63,1,,
,,,,,,,,,,,,,2,5e9757d83b0f220c5a60777d,001,2021-02-28_18h01.10.005,GuessTheSound,2020.2.10,Win32,60,,,,,,,,,,,,,,,Coin_E.wav,2,SIMILAR,B,,,2,1,0.636,0,64,64,64,1,,
,,,,,,,,,,,,,1,5e9757d83b0f220c5a60777d,001,2021-02-28_18h01.10.005,GuessTheSound,2020.2.10,Win32,60,,,,,,,,,,,,,,,Initial/Repeat/Howl.wav,1,OLD,B,,,1,1,0.484,0,65,65,65,1,,
,,,,,,,,,,,,,1,5e9757d83b0f220c5a60777d,001,2021-02-28_18h01.10.005,GuessTheSound,2020.2.10,Win32,60,,,,,,,,,,,,,,,Initial/Repeat/Airplane_B.wav,1,OLD,B,,,1,1,0.437,0,66,66,66,1,,
,,,,,,,,,,,,,1,5e9757d83b0f220c5a60777d,001,2021-02-28_18h01.10.005,GuessTheSound,2020.2.10,Win32,60,,,,,,,,,,,,,,,Initial/NoRepeat/Mosquito_B.wav,1,OLD,B,,,3,0,0.435,0,67,67,67,1,,
,,,,,,,,,,,,,2,5e9757d83b0f220c5a60777d,001,2021-02-28_18h01.10.005,GuessTheSound,2020.2.10,Win32,60,,,,,,,,,,,,,,,Initial/NoRepeat/Droplet_B.wav,3,NEW,B,,,2,0,1.585,0,68,68,68,1,,
,,,,,,,,,,,,,1,5e9757d83b0f220c5a60777d,001,2021-02-28_18h01.10.005,GuessTheSound,2020.2.10,Win32,60,,,,,,,,,,,,,,,Test/Foils/Donkey.wav,1,OLD,B,,,1,1,1.326,0,69,69,69,1,,
,,,,,,,,,,,,,2,5e9757d83b0f220c5a60777d,001,2021-02-28_18h01.10.005,GuessTheSound,2020.2.10,Win32,60,,,,,,,,,,,,,,,Test/Lures/Guitar_B.wav,3,NEW,B,,,3,1,0.569,0,70,70,70,1,,
,,,,,,,,,,,,,1,5e9757d83b0f220c5a60777d,001,2021-02-28_18h01.10.005,GuessTheSound,2020.2.10,Win32,60,,,,,,,,,,,,,,,Initial/Repeat/Bagpipe.wav,1,OLD,B,,,1,1,0.453,0,71,71,71,1,,
,,,,,,,,,,,,,2,5e9757d83b0f220c5a60777d,001,2021-02-28_18h01.10.005,GuessTheSound,2020.2.10,Win32,60,,,,,,,,,,,,,,,Initial/NoRepeat/Hammer_A.wav,3,NEW,B,,,1,0,0.752,0,72,72,72,1,,
,,,,,,,,,,,,,1,5e9757d83b0f220c5a60777d,001,2021-02-28_18h01.10.005,GuessTheSound,2020.2.10,Win32,60,,,,,,,,,,,,,,,Initial/NoRepeat/Helicopter_A.wav,1,OLD,B,,,1,1,0.656,0,73,73,73,1,,
,,,,,,,,,,,,,2,5e9757d83b0f220c5a60777d,001,2021-02-28_18h01.10.005,GuessTheSound,2020.2.10,Win32,60,,,,,,,,,,,,,,,Test/Foils/Camera.wav,3,NEW,B,,,3,1,0.454,0,74,74,74,1,,
,,,,,,,,,,,,,2,5e9757d83b0f220c5a60777d,001,2021-02-28_18h01.10.005,GuessTheSound,2020.2.10,Win32,60,,,,,,,,,,,,,,,Test/Foils/Steam.wav,3,NEW,B,,,3,1,3,0,75,75,75,1,,
,,,,,,,,,,,,,1,5e9757d83b0f220c5a60777d,001,2021-02-28_18h01.10.005,GuessTheSound,2020.2.10,Win32,60,,,,,,,,,,,,,,,Test/Foils/Horse.wav,1,OLD,B,,,1,1,0.693,0,76,76,76,1,,
,,,,,,,,,,,,,2,5e9757d83b0f220c5a60777d,001,2021-02-28_18h01.10.005,GuessTheSound,2020.2.10,Win32,60,,,,,,,,,,,,,,,Elephant_C.wav,3,NEW,B,,,3,1,1.434,0,77,77,77,1,,
,,,,,,,,,,,,,1,5e9757d83b0f220c5a60777d,001,2021-02-28_18h01.10.005,GuessTheSound,2020.2.10,Win32,60,,,,,,,,,,,,,,,Initial/Repeat/Printer.wav,1,OLD,B,,,1,1,1.324,0,78,78,78,1,,
,,,,,,,,,,,,,2,5e9757d83b0f220c5a60777d,001,2021-02-28_18h01.10.005,GuessTheSound,2020.2.10,Win32,60,,,,,,,,,,,,,,,Crow_A.wav,2,SIMILAR,B,,,2,1,1.772,0,79,79,79,1,,
,,,,,,,,,,,,,2,5e9757d83b0f220c5a60777d,001,2021-02-28_18h01.10.005,GuessTheSound,2020.2.10,Win32,60,,,,,,,,,,,,,,,Initial/Doubled/Bubbles_A.wav,3,NEW,B,,,2,0,2.069,0,80,80,80,1,,
,,,,,,,,,,,,,2,5e9757d83b0f220c5a60777d,001,2021-02-28_18h01.10.005,GuessTheSound,2020.2.10,Win32,60,,,,,,,,,,,,,,,Chomp_E.wav,2,SIMILAR,B,,,1,0,1.053,0,81,81,81,1,,
,,,,,,,,,,,,,2,5e9757d83b0f220c5a60777d,001,2021-02-28_18h01.10.005,GuessTheSound,2020.2.10,Win32,60,,,,,,,,,,,,,,,Test/Foils/Airhorn.wav,3,NEW,B,,,3,1,1.383,0,82,82,82,1,,
,,,,,,,,,,,,,2,5e9757d83b0f220c5a60777d,001,2021-02-28_18h01.10.005,GuessTheSound,2020.2.10,Win32,60,,,,,,,,,,,,,,,Initial/Doubled/Writing_A.wav,3,NEW,B,,,3,1,1.184,0,83,83,83,1,,
,,,,,,,,,,,,,2,5e9757d83b0f220c5a60777d,001,2021-02-28_18h01.10.005,GuessTheSound,2020.2.10,Win32,60,,,,,,,,,,,,,,,Initial/Doubled/Cuckoo_A.wav,3,NEW,B,,,3,1,0.591,0,84,84,84,1,,
,,,,,,,,,,,,,2,5e9757d83b0f220c5a60777d,001,2021-02-28_18h01.10.005,GuessTheSound,2020.2.10,Win32,60,,,,,,,,,,,,,,,Initial/Repeat/IceDrop.wav,3,NEW,B,,,3,1,0.683,0,85,85,85,1,,
,,,,,,,,,,,,,2,5e9757d83b0f220c5a60777d,001,2021-02-28_18h01.10.005,GuessTheSound,2020.2.10,Win32,60,,,,,,,,,,,,,,,CarStart_E.wav,2,SIMILAR,B,,,2,1,2.571,0,86,86,86,1,,
,,,,,,,,,,,,,2,5e9757d83b0f220c5a60777d,001,2021-02-28_18h01.10.005,GuessTheSound,2020.2.10,Win32,60,,,,,,,,,,,,,,,Baby_F.wav,3,NEW,B,,,3,1,0.368,0,87,87,87,1,,
,,,,,,,,,,,,,2,5e9757d83b0f220c5a60777d,001,2021-02-28_18h01.10.005,GuessTheSound,2020.2.10,Win32,60,,,,,,,,,,,,,,,Initial/NoRepeat/Puff_A.wav,3,NEW,B,,,3,1,0.449,0,88,88,88,1,,
,,,,,,,,,,,,,1,5e9757d83b0f220c5a60777d,001,2021-02-28_18h01.10.005,GuessTheSound,2020.2.10,Win32,60,,,,,,,,,,,,,,,Initial/NoRepeat/Droplet_B.wav,1,OLD,B,,,1,1,7.897,0,89,89,89,1,,
,,,,,,,,,,,,,1,5e9757d83b0f220c5a60777d,001,2021-02-28_18h01.10.005,GuessTheSound,2020.2.10,Win32,60,,,,,,,,,,,,,,,Test/Lures/Guitar_B.wav,1,OLD,B,,,1,1,0.436,0,90,90,90,1,,
,,,,,,,,,,,,,2,5e9757d83b0f220c5a60777d,001,2021-02-28_18h01.10.005,GuessTheSound,2020.2.10,Win32,60,,,,,,,,,,,,,,,Initial/Repeat/PaperRip.wav,3,NEW,B,,,3,1,1.333,0,91,91,91,1,,
,,,,,,,,,,,,,1,5e9757d83b0f220c5a60777d,001,2021-02-28_18h01.10.005,GuessTheSound,2020.2.10,Win32,60,,,,,,,,,,,,,,,Initial/NoRepeat/Mosquito_B.wav,1,OLD,B,,,1,1,0.818,0,92,92,92,1,,
,,,,,,,,,,,,,2,5e9757d83b0f220c5a60777d,001,2021-02-28_18h01.10.005,GuessTheSound,2020.2.10,Win32,60,,,,,,,,,,,,,,,Initial/Repeat/Trumpet_B.wav,3,NEW,B,,,3,1,0.706,0,93,93,93,1,,
,,,,,,,,,,,,,2,5e9757d83b0f220c5a60777d,001,2021-02-28_18h01.10.005,GuessTheSound,2020.2.10,Win32,60,,,,,,,,,,,,,,,Test/Foils/Bullfrog.wav,3,NEW,B,,,3,1,0.472,0,94,94,94,1,,
,,,,,,,,,,,,,2,5e9757d83b0f220c5a60777d,001,2021-02-28_18h01.10.005,GuessTheSound,2020.2.10,Win32,60,,,,,,,,,,,,,,,Elephant_D.wav,2,SIMILAR,B,,,1,0,0.769,0,95,95,95,1,,
,,,,,,,,,,,,,2,5e9757d83b0f220c5a60777d,001,2021-02-28_18h01.10.005,GuessTheSound,2020.2.10,Win32,60,,,,,,,,,,,,,,,Initial/Repeat/Sneeze_B.wav,3,NEW,B,,,3,1,1.051,0,96,96,96,1,,
,,,,,,,,,,,,,1,5e9757d83b0f220c5a60777d,001,2021-02-28_18h01.10.005,GuessTheSound,2020.2.10,Win32,60,,,,,,,,,,,,,,,Test/Foils/Camera.wav,1,OLD,B,,,1,1,2.988,0,97,97,97,1,,
,,,,,,,,,,,,,2,5e9757d83b0f220c5a60777d,001,2021-02-28_18h01.10.005,GuessTheSound,2020.2.10,Win32,60,,,,,,,,,,,,,,,Initial/Doubled/Cat_A.wav,3,NEW,B,,,3,1,0.424,0,98,98,98,1,,
,,,,,,,,,,,,,1,5e9757d83b0f220c5a60777d,001,2021-02-28_18h01.10.005,GuessTheSound,2020.2.10,Win32,60,,,,,,,,,,,,,,,Test/Foils/Steam.wav,1,OLD,B,,,1,1,2.051,0,99,99,99,1,,
,,,,,,,,,,,,,2,5e9757d83b0f220c5a60777d,001,2021-02-28_18h01.10.005,GuessTheSound,2020.2.10,Win32,60,,,,,,,,,,,,,,,Writing_C.wav,2,SIMILAR,B,,,2,1,2.622,0,100,100,100,1,,
,,,,,,,,,,,,,1,5e9757d83b0f220c5a60777d,001,2021-02-28_18h01.10.005,GuessTheSound,2020.2.10,Win32,60,,,,,,,,,,,,,,,Initial/Repeat/IceDrop.wav,1,OLD,B,,,2,0,0.401,0,101,101,101,1,,
,,,,,,,,,,,,,2,5e9757d83b0f220c5a60777d,001,2021-02-28_18h01.10.005,GuessTheSound,2020.2.10,Win32,60,,,,,,,,,,,,,,,Test/Foils/Slurp.wav,3,NEW,B,,,3,1,0.568,0,102,102,102,1,,
,,,,,,,,,,,,,2,5e9757d83b0f220c5a60777d,001,2021-02-28_18h01.10.005,GuessTheSound,2020.2.10,Win32,60,,,,,,,,,,,,,,,Baby_E.wav,2,SIMILAR,B,,,2,1,0.817,0,103,103,103,1,,
,,,,,,,,,,,,,2,5e9757d83b0f220c5a60777d,001,2021-02-28_18h01.10.005,GuessTheSound,2020.2.10,Win32,60,,,,,,,,,,,,,,,Test/Foils/DialTone.wav,3,NEW,B,,,3,1,0.338,0,104,104,104,1,,
,,,,,,,,,,,,,1,5e9757d83b0f220c5a60777d,001,2021-02-28_18h01.10.005,GuessTheSound,2020.2.10,Win32,60,,,,,,,,,,,,,,,Initial/NoRepeat/Puff_A.wav,1,OLD,B,,,1,1,0.335,0,105,105,105,1,,
,,,,,,,,,,,,,2,5e9757d83b0f220c5a60777d,001,2021-02-28_18h01.10.005,GuessTheSound,2020.2.10,Win32,60,,,,,,,,,,,,,,,Initial/Repeat/Buzz.wav,3,NEW,B,,,3,1,0.343,0,106,106,106,1,,
,,,,,,,,,,,,,1,5e9757d83b0f220c5a60777d,001,2021-02-28_18h01.10.005,GuessTheSound,2020.2.10,Win32,60,,,,,,,,,,,,,,,Test/Foils/Airhorn.wav,1,OLD,B,,,1,1,0.423,0,107,107,107,1,,
,,,,,,,,,,,,,2,5e9757d83b0f220c5a60777d,001,2021-02-28_18h01.10.005,GuessTheSound,2020.2.10,Win32,60,,,,,,,,,,,,,,,Initial/NoRepeat/Sleighbells_B.wav,3,NEW,B,,,3,1,0.509,0,108,108,108,1,,
,,,,,,,,,,,,,1,5e9757d83b0f220c5a60777d,001,2021-02-28_18h01.10.005,GuessTheSound,2020.2.10,Win32,60,,,,,,,,,,,,,,,Initial/Doubled/Cuckoo_A.wav,1,OLD,B,,,1,1,0.374,0,109,109,109,1,,
,,,,,,,,,,,,,2,5e9757d83b0f220c5a60777d,001,2021-02-28_18h01.10.005,GuessTheSound,2020.2.10,Win32,60,,,,,,,,,,,,,,,Test/Foils/Wind_B.wav,3,NEW,B,,,3,1,0.317,0,110,110,110,1,,
,,,,,,,,,,,,,2,5e9757d83b0f220c5a60777d,001,2021-02-28_18h01.10.005,GuessTheSound,2020.2.10,Win32,60,,,,,,,,,,,,,,,Test/Foils/Typing.wav,3,NEW,B,,,3,1,1.255,0,111,111,111,1,,
,,,,,,,,,,,,,2,5e9757d83b0f220c5a60777d,001,2021-02-28_18h01.10.005,GuessTheSound,2020.2.10,Win32,60,,,,,,,,,,,,,,,Test/Lures/Bubbles_B.wav,2,SIMILAR,B,,,3,0,0.268,0,112,112,112,1,,
,,,,,,,,,,,,,2,5e9757d83b0f220c5a60777d,001,2021-02-28_18h01.10.005,GuessTheSound,2020.2.10,Win32,60,,,,,,,,,,,,,,,Duck_A.wav,3,NEW,B,,,3,1,1.217,0,113,113,113,1,,
,,,,,,,,,,,,,1,5e9757d83b0f220c5a60777d,001,2021-02-28_18h01.10.005,GuessTheSound,2020.2.10,Win32,60,,,,,,,,,,,,,,,Initial/Repeat/Trumpet_B.wav,1,OLD,B,,,1,1,1.05,0,114,114,114,1,,
,,,,,,,,,,,,,1,5e9757d83b0f220c5a60777d,001,2021-02-28_18h01.10.005,GuessTheSound,2020.2.10,Win32,60,,,,,,,,,,,,,,,Initial/Repeat/PaperRip.wav,1,OLD,B,,,2,0,2.814,0,115,115,115,1,,
,,,,,,,,,,,,,1,5e9757d83b0f220c5a60777d,001,2021-02-28_18h01.10.005,GuessTheSound,2020.2.10,Win32,60,,,,,,,,,,,,,,,Initial/Repeat/Sneeze_B.wav,1,OLD,B,,,1,1,0.371,0,116,116,116,1,,
,,,,,,,,,,,,,2,5e9757d83b0f220c5a60777d,001,2021-02-28_18h01.10.005,GuessTheSound,2020.2.10,Win32,60,,,,,,,,,,,,,,,Initial/Repeat/Pour.wav,3,NEW,B,,,2,0,2.306,0,117,117,117,1,,
,,,,,,,,,,,,,1,5e9757d83b0f220c5a60777d,001,2021-02-28_18h01.10.005,GuessTheSound,2020.2.10,Win32,60,,,,,,,,,,,,,,,Initial/Doubled/Cat_A.wav,1,OLD,B,,,1,1,0.291,0,118,118,118,1,,
,,,,,,,,,,,,,1,5e9757d83b0f220c5a60777d,001,2021-02-28_18h01.10.005,GuessTheSound,2020.2.10,Win32,60,,,,,,,,,,,,,,,Test/Foils/Slurp.wav,1,OLD,B,,,2,0,10.764,0,119,119,119,1,,
,,,,,,,,,,,,,1,5e9757d83b0f220c5a60777d,001,2021-02-28_18h01.10.005,GuessTheSound,2020.2.10,Win32,60,,,,,,,,,,,,,,,Test/Foils/Bullfrog.wav,1,OLD,B,,,1,1,0.457,0,120,120,120,1,,
,,,,,,,,,,,,,1,5e9757d83b0f220c5a60777d,001,2021-02-28_18h01.10.005,GuessTheSound,2020.2.10,Win32,60,,,,,,,,,,,,,,,Test/Foils/Wind_B.wav,1,OLD,B,,,1,1,8.532,0,121,121,121,1,,
,,,,,,,,,,,,,2,5e9757d83b0f220c5a60777d,001,2021-02-28_18h01.10.005,GuessTheSound,2020.2.10,Win32,60,,,,,,,,,,,,,,,Duck_B.wav,2,SIMILAR,B,,,2,1,0.784,0,122,122,122,1,,
,,,,,,,,,,,,,1,5e9757d83b0f220c5a60777d,001,2021-02-28_18h01.10.005,GuessTheSound,2020.2.10,Win32,60,,,,,,,,,,,,,,,Test/Foils/DialTone.wav,1,OLD,B,,,1,1,0.568,0,123,123,123,1,,
,,,,,,,,,,,,,1,5e9757d83b0f220c5a60777d,001,2021-02-28_18h01.10.005,GuessTheSound,2020.2.10,Win32,60,,,,,,,,,,,,,,,Initial/Repeat/Buzz.wav,1,OLD,B,,,1,1,0.575,0,124,124,124,1,,
,,,,,,,,,,,,,2,5e9757d83b0f220c5a60777d,001,2021-02-28_18h01.10.005,GuessTheSound,2020.2.10,Win32,60,,,,,,,,,,,,,,,Pour_C.wav,2,SIMILAR,B,,,2,1,2.136,0,125,125,125,1,,
,,,,,,,,,,,,,1,5e9757d83b0f220c5a60777d,001,2021-02-28_18h01.10.005,GuessTheSound,2020.2.10,Win32,60,,,,,,,,,,,,,,,Test/Foils/Typing.wav,1,OLD,B,,,1,1,0.535,0,126,126,126,1,,
,,,,,,,,,,,,,1,5e9757d83b0f220c5a60777d,001,2021-02-28_18h01.10.005,GuessTheSound,2020.2.10,Win32,60,,,,,,,,,,,,,,,Initial/NoRepeat/Sleighbells_B.wav,1,OLD,B,,,1,1,0.322,0,127,127,127,1,,
,,,,,,,,,,,,,,5e9757d83b0f220c5a60777d,001,2021-02-28_18h01.10.005,GuessTheSound,2020.2.10,Win32,60,,,,,,,,,,,,,,,,,,,,,,,,,,,,,space,7.563
