ContinueResp.keys,ContinueResp.rt,WelcomeContinueKey2.keys,WelcomeContinueKey2.rt,VolumeContinueKey.keys,VolumeContinueKey.rt,ResponseBox.text,MSTResp.keys,MSTResp.rt,trials.thisRepN,trials.thisTrialN,trials.thisN,trials.thisIndex,trials.ran,SoundFiles2,participant,session,date,expName,psychopyVersion,OS,frameRate,ExitKey.keys,ExitKey.rt
space,8.265,space,7.147,space,2.867,phone dial tone,1,5.702,0,0,0,7,1,Test/Foils/DialTone.wav,5ebc23bce7dea502638f1bea,001,2021-01-05_19h19.40.652,GuessTheSound,2020.2.10,Win32,60,,
,,,,,,police siren,3,4.85,0,1,1,33,1,Siren_B.wav,5ebc23bce7dea502638f1bea,001,2021-01-05_19h19.40.652,GuessTheSound,2020.2.10,Win32,60,,
,,,,,,pouring liquid,3,3.136,0,2,2,31,1,Pour_D.wav,5ebc23bce7dea502638f1bea,001,2021-01-05_19h19.40.652,GuessTheSound,2020.2.10,Win32,60,,
,,,,,,bird singing,3,1.534,0,3,3,44,1,Bird_D.wav,5ebc23bce7dea502638f1bea,001,2021-01-05_19h19.40.652,GuessTheSound,2020.2.10,Win32,60,,
,,,,,,people laughing,3,1.566,0,4,4,41,1,Laugh_D.wav,5ebc23bce7dea502638f1bea,001,2021-01-05_19h19.40.652,GuessTheSound,2020.2.10,Win32,60,,
,,,,,,thunder,3,1.135,0,5,5,24,1,Initial/NoRepeat/Thunder_A.wav,5ebc23bce7dea502638f1bea,001,2021-01-05_19h19.40.652,GuessTheSound,2020.2.10,Win32,60,,
,,,,,,baby ,3,1.319,0,6,6,1,1,Initial/NoRepeat/Baby_B.wav,5ebc23bce7dea502638f1bea,001,2021-01-05_19h19.40.652,GuessTheSound,2020.2.10,Win32,60,,
,,,,,,liquid pouring,1,1.755,0,7,7,60,1,Initial/Repeat/Pour.wav,5ebc23bce7dea502638f1bea,001,2021-01-05_19h19.40.652,GuessTheSound,2020.2.10,Win32,60,,
,,,,,,clapping hands,3,2.748,0,8,8,22,1,Initial/Doubled/Clap_A.wav,5ebc23bce7dea502638f1bea,001,2021-01-05_19h19.40.652,GuessTheSound,2020.2.10,Win32,60,,
,,,,,,coughing,3,2.681,0,9,9,69,1,Initial/Doubled/Cough_A.wav,5ebc23bce7dea502638f1bea,001,2021-01-05_19h19.40.652,GuessTheSound,2020.2.10,Win32,60,,
,,,,,,coughing,2,1.499,0,10,10,56,1,Cough_D.wav,5ebc23bce7dea502638f1bea,001,2021-01-05_19h19.40.652,GuessTheSound,2020.2.10,Win32,60,,
,,,,,,piano,3,1.841,0,11,11,59,1,Piano_D.wav,5ebc23bce7dea502638f1bea,001,2021-01-05_19h19.40.652,GuessTheSound,2020.2.10,Win32,60,,
,,,,,,dog barking,3,1.721,0,12,12,48,1,Dog_B.wav,5ebc23bce7dea502638f1bea,001,2021-01-05_19h19.40.652,GuessTheSound,2020.2.10,Win32,60,,
,,,,,,baby talking,2,1.05,0,13,13,38,1,Baby_D.wav,5ebc23bce7dea502638f1bea,001,2021-01-05_19h19.40.652,GuessTheSound,2020.2.10,Win32,60,,
,,,,,,tearing paper,3,2.4,0,14,14,13,1,Initial/Doubled/Chomp_A.wav,5ebc23bce7dea502638f1bea,001,2021-01-05_19h19.40.652,GuessTheSound,2020.2.10,Win32,60,,
,,,,,,birds singing,2,2.003,0,15,15,43,1,Bird_C.wav,5ebc23bce7dea502638f1bea,001,2021-01-05_19h19.40.652,GuessTheSound,2020.2.10,Win32,60,,
,,,,,,piano ,2,1.733,0,16,16,58,1,Piano_C.wav,5ebc23bce7dea502638f1bea,001,2021-01-05_19h19.40.652,GuessTheSound,2020.2.10,Win32,60,,
,,,,,,people laughing,1,1.684,0,17,17,64,1,Initial/Doubled/Laugh_A.wav,5ebc23bce7dea502638f1bea,001,2021-01-05_19h19.40.652,GuessTheSound,2020.2.10,Win32,60,,
,,,,,,police siren,2,1.288,0,18,18,0,1,Initial/Doubled/Siren_A.wav,5ebc23bce7dea502638f1bea,001,2021-01-05_19h19.40.652,GuessTheSound,2020.2.10,Win32,60,,
,,,,,,coughing,2,1.338,0,19,19,54,1,Cough_B.wav,5ebc23bce7dea502638f1bea,001,2021-01-05_19h19.40.652,GuessTheSound,2020.2.10,Win32,60,,
,,,,,,dog barking,2,1.85,0,20,20,50,1,Dog_D.wav,5ebc23bce7dea502638f1bea,001,2021-01-05_19h19.40.652,GuessTheSound,2020.2.10,Win32,60,,
,,,,,,car engine turning on,3,1.389,0,21,21,66,1,Initial/Doubled/CarStart_A.wav,5ebc23bce7dea502638f1bea,001,2021-01-05_19h19.40.652,GuessTheSound,2020.2.10,Win32,60,,
,,,,,,dog barking,2,2.284,0,22,22,49,1,Dog_C.wav,5ebc23bce7dea502638f1bea,001,2021-01-05_19h19.40.652,GuessTheSound,2020.2.10,Win32,60,,
,,,,,,mosquito,3,1.334,0,23,23,5,1,Initial/NoRepeat/Mosquito_B.wav,5ebc23bce7dea502638f1bea,001,2021-01-05_19h19.40.652,GuessTheSound,2020.2.10,Win32,60,,
,,,,,,helicopter,3,0.684,0,24,24,20,1,Initial/NoRepeat/Helicopter_A.wav,5ebc23bce7dea502638f1bea,001,2021-01-05_19h19.40.652,GuessTheSound,2020.2.10,Win32,60,,
,,,,,,slurping liquid,3,0.983,0,25,25,11,1,Test/Foils/Slurp.wav,5ebc23bce7dea502638f1bea,001,2021-01-05_19h19.40.652,GuessTheSound,2020.2.10,Win32,60,,
,,,,,,car engine turning on,2,1.322,0,26,26,8,1,Initial/Doubled/CarStart_A.wav,5ebc23bce7dea502638f1bea,001,2021-01-05_19h19.40.652,GuessTheSound,2020.2.10,Win32,60,,
,,,,,,cat meowing,3,1.25,0,27,27,18,1,Initial/Doubled/Cat_A.wav,5ebc23bce7dea502638f1bea,001,2021-01-05_19h19.40.652,GuessTheSound,2020.2.10,Win32,60,,
,,,,,,cold liquid pouring in glass,2,1.689,0,28,28,30,1,Pour_C.wav,5ebc23bce7dea502638f1bea,001,2021-01-05_19h19.40.652,GuessTheSound,2020.2.10,Win32,60,,
,,,,,,fizzy liquid pouring,2,1.417,0,29,29,32,1,Pour_B.wav,5ebc23bce7dea502638f1bea,001,2021-01-05_19h19.40.652,GuessTheSound,2020.2.10,Win32,60,,
,,,,,,fabric tearing,3,1.155,0,30,30,53,1,Chomp_D.wav,5ebc23bce7dea502638f1bea,001,2021-01-05_19h19.40.652,GuessTheSound,2020.2.10,Win32,60,,
,,,,,,women laughing,2,2.835,0,31,31,40,1,Laugh_C.wav,5ebc23bce7dea502638f1bea,001,2021-01-05_19h19.40.652,GuessTheSound,2020.2.10,Win32,60,,
,,,,,,biting an apple,3,1.099,0,32,32,52,1,Chomp_C.wav,5ebc23bce7dea502638f1bea,001,2021-01-05_19h19.40.652,GuessTheSound,2020.2.10,Win32,60,,
,,,,,,paper tearing,2,2.455,0,33,33,68,1,Initial/Doubled/Chomp_A.wav,5ebc23bce7dea502638f1bea,001,2021-01-05_19h19.40.652,GuessTheSound,2020.2.10,Win32,60,,
,,,,,,wind blowing,3,1.001,0,34,34,23,1,Test/Foils/Wind_B.wav,5ebc23bce7dea502638f1bea,001,2021-01-05_19h19.40.652,GuessTheSound,2020.2.10,Win32,60,,
,,,,,,people laughing,2,1.567,0,35,35,39,1,Laugh_B.wav,5ebc23bce7dea502638f1bea,001,2021-01-05_19h19.40.652,GuessTheSound,2020.2.10,Win32,60,,
,,,,,,coughing young man,1,1.85,0,36,36,19,1,Initial/Doubled/Cough_A.wav,5ebc23bce7dea502638f1bea,001,2021-01-05_19h19.40.652,GuessTheSound,2020.2.10,Win32,60,,
,,,,,,people laughing,1,0.638,0,37,37,14,1,Initial/Doubled/Laugh_A.wav,5ebc23bce7dea502638f1bea,001,2021-01-05_19h19.40.652,GuessTheSound,2020.2.10,Win32,60,,
,,,,,,baby crying,1,1.936,0,38,38,63,1,Initial/NoRepeat/Baby_B.wav,5ebc23bce7dea502638f1bea,001,2021-01-05_19h19.40.652,GuessTheSound,2020.2.10,Win32,60,,
,,,,,,car engine turning on,1,0.917,0,39,39,45,1,CarStart_B.wav,5ebc23bce7dea502638f1bea,001,2021-01-05_19h19.40.652,GuessTheSound,2020.2.10,Win32,60,,
,,,,,,whistling,3,1.5,0,40,40,9,1,Initial/Repeat/ManWhistle.wav,5ebc23bce7dea502638f1bea,001,2021-01-05_19h19.40.652,GuessTheSound,2020.2.10,Win32,60,,
,,,,,,piano,2,1.019,0,41,41,61,1,Initial/Doubled/Piano_A.wav,5ebc23bce7dea502638f1bea,001,2021-01-05_19h19.40.652,GuessTheSound,2020.2.10,Win32,60,,
,,,,,,toilet flushing,3,1.649,0,42,42,21,1,Initial/NoRepeat/Toilet_B.wav,5ebc23bce7dea502638f1bea,001,2021-01-05_19h19.40.652,GuessTheSound,2020.2.10,Win32,60,,
,,,,,,beer pouring,2,0.982,0,43,43,2,1,Initial/Repeat/Pour.wav,5ebc23bce7dea502638f1bea,001,2021-01-05_19h19.40.652,GuessTheSound,2020.2.10,Win32,60,,
,,,,,,church bells,3,0.966,0,44,44,6,1,Initial/Doubled/Chime_A.wav,5ebc23bce7dea502638f1bea,001,2021-01-05_19h19.40.652,GuessTheSound,2020.2.10,Win32,60,,
,,,,,,blow dryer,3,1.472,0,45,45,10,1,Initial/Doubled/HairDryer_A.wav,5ebc23bce7dea502638f1bea,001,2021-01-05_19h19.40.652,GuessTheSound,2020.2.10,Win32,60,,
,,,,,,christmas bells,2,1.4,0,46,46,15,1,Initial/NoRepeat/Sleighbells_B.wav,5ebc23bce7dea502638f1bea,001,2021-01-05_19h19.40.652,GuessTheSound,2020.2.10,Win32,60,,
,,,,,,baby happy,2,1.405,0,47,47,37,1,Baby_C.wav,5ebc23bce7dea502638f1bea,001,2021-01-05_19h19.40.652,GuessTheSound,2020.2.10,Win32,60,,
,,,,,,baby crying,1,1.551,0,48,48,36,1,Baby_A.wav,5ebc23bce7dea502638f1bea,001,2021-01-05_19h19.40.652,GuessTheSound,2020.2.10,Win32,60,,
,,,,,,elephant,3,1.333,0,49,49,29,1,Initial/NoRepeat/Elephant_A.wav,5ebc23bce7dea502638f1bea,001,2021-01-05_19h19.40.652,GuessTheSound,2020.2.10,Win32,60,,
,,,,,,piano,1,5.1,0,50,50,3,1,Initial/Doubled/Piano_A.wav,5ebc23bce7dea502638f1bea,001,2021-01-05_19h19.40.652,GuessTheSound,2020.2.10,Win32,60,,
,,,,,,alarm clock,3,1.235,0,51,51,25,1,Initial/Doubled/Cuckoo_A.wav,5ebc23bce7dea502638f1bea,001,2021-01-05_19h19.40.652,GuessTheSound,2020.2.10,Win32,60,,
,,,,,,woman coughing,2,0.688,0,52,52,55,1,Cough_C.wav,5ebc23bce7dea502638f1bea,001,2021-01-05_19h19.40.652,GuessTheSound,2020.2.10,Win32,60,,
,,,,,,dog barking,2,1.334,0,53,53,12,1,Initial/Doubled/Dog_A.wav,5ebc23bce7dea502638f1bea,001,2021-01-05_19h19.40.652,GuessTheSound,2020.2.10,Win32,60,,
,,,,,,piano,1,1,0,54,54,57,1,Piano_B.wav,5ebc23bce7dea502638f1bea,001,2021-01-05_19h19.40.652,GuessTheSound,2020.2.10,Win32,60,,
,,,,,,bird singing,2,1.251,0,55,55,4,1,Test/Foils/Bird.wav,5ebc23bce7dea502638f1bea,001,2021-01-05_19h19.40.652,GuessTheSound,2020.2.10,Win32,60,,
,,,,,,police siren,1,1.2,0,56,56,62,1,Initial/Doubled/Siren_A.wav,5ebc23bce7dea502638f1bea,001,2021-01-05_19h19.40.652,GuessTheSound,2020.2.10,Win32,60,,
,,,,,,bird singing,1,1.02,0,57,57,65,1,Test/Foils/Bird.wav,5ebc23bce7dea502638f1bea,001,2021-01-05_19h19.40.652,GuessTheSound,2020.2.10,Win32,60,,
,,,,,,police siren,1,1.121,0,58,58,34,1,Siren_C.wav,5ebc23bce7dea502638f1bea,001,2021-01-05_19h19.40.652,GuessTheSound,2020.2.10,Win32,60,,
,,,,,,trumpet,3,1.067,0,59,59,17,1,Initial/Repeat/Trumpet_B.wav,5ebc23bce7dea502638f1bea,001,2021-01-05_19h19.40.652,GuessTheSound,2020.2.10,Win32,60,,
,,,,,,,,,,,,,,,5ebc23bce7dea502638f1bea,001,2021-01-05_19h19.40.652,GuessTheSound,2020.2.10,Win32,60,space,20.737
