VolumeContinueKey.keys,VolumeContinueKey.rt,HeadphoneContinueKey.keys,HeadphoneContinueKey.rt,CheckResp.keys,CheckResp.corr,CheckResp.rt,trials_2.thisRepN,trials_2.thisTrialN,trials_2.thisN,trials_2.thisIndex,trials_2.ran,File,Correct,participant,date,expName,psychopyVersion,OS,frameRate,key_resp_2.keys,key_resp_2.rt,key_resp_3.keys,key_resp_3.rt,WelcomeContinueKey2.keys,WelcomeContinueKey2.rt,Practice_resp.keys,Practice_resp.corr,Practice_resp.rt,PracticeLoop.thisRepN,PracticeLoop.thisTrialN,PracticeLoop.thisN,PracticeLoop.thisIndex,PracticeLoop.ran,SoundFile,SoundCorrect,Correct2,SoundType,Trial,StartTast.keys,StartTast.rt,key_resp.keys,key_resp.corr,key_resp.rt,trials.thisRepN,trials.thisTrialN,trials.thisN,trials.thisIndex,trials.ran,ExitKey.keys,ExitKey.rt
space,5.419635,space,11.885515,1,1,5.578915,0,0,0,1,1,Headphone/t1_2.wav,1,5eef2ef1485fb3000809324c,2021-03-21_17h09.46.060,GuessTheSound,2020.2.10,Win32,60,,,,,,,,,,,,,,,,,,,,,,,,,,,,,,,
,,,,2,1,3.97777,0,1,1,2,1,Headphone/t2_1.wav,2,5eef2ef1485fb3000809324c,2021-03-21_17h09.46.060,GuessTheSound,2020.2.10,Win32,60,,,,,,,,,,,,,,,,,,,,,,,,,,,,,,,
,,,,2,1,0.459875,0,2,2,3,1,Headphone/t2_2.wav,2,5eef2ef1485fb3000809324c,2021-03-21_17h09.46.060,GuessTheSound,2020.2.10,Win32,60,,,,,,,,,,,,,,,,,,,,,,,,,,,,,,,
,,,,1,1,0.19037,0,3,3,0,1,Headphone/t1_1.wav,1,5eef2ef1485fb3000809324c,2021-03-21_17h09.46.060,GuessTheSound,2020.2.10,Win32,60,,,,,,,,,,,,,,,,,,,,,,,,,,,,,,,
,,,,3,1,0.340835,0,4,4,4,1,Headphone/t3_1.wav,3,5eef2ef1485fb3000809324c,2021-03-21_17h09.46.060,GuessTheSound,2020.2.10,Win32,60,,,,,,,,,,,,,,,,,,,,,,,,,,,,,,,
,,,,3,1,0.342575,0,5,5,5,1,Headphone/t3_2.wav,3,5eef2ef1485fb3000809324c,2021-03-21_17h09.46.060,GuessTheSound,2020.2.10,Win32,60,,,,,,,,,,,,,,,,,,,,,,,,,,,,,,,
,,,,,,,,,,,,,,5eef2ef1485fb3000809324c,2021-03-21_17h09.46.060,GuessTheSound,2020.2.10,Win32,60,space,24.859275,space,10.768305,space,14.021675,2,1,16.20037,0,0,0,0,1,Practice/Seagull_A.wav,2,3,NEW,Practice,,,,,,,,,,,,
,,,,,,,,,,,,,,5eef2ef1485fb3000809324c,2021-03-21_17h09.46.060,GuessTheSound,2020.2.10,Win32,60,,,,,,,2,1,1.53383,0,1,1,1,1,Practice/Skid_B.wav,2,3,NEW,Practice,,,,,,,,,,,,
,,,,,,,,,,,,,,5eef2ef1485fb3000809324c,2021-03-21_17h09.46.060,GuessTheSound,2020.2.10,Win32,60,,,,,,,1,1,2.585705,0,2,2,2,1,Practice/Seagull_A.wav,1,1,OLD,Practice,,,,,,,,,,,,
,,,,,,,,,,,,,,5eef2ef1485fb3000809324c,2021-03-21_17h09.46.060,GuessTheSound,2020.2.10,Win32,60,,,,,,,2,1,1.59412,0,3,3,3,1,Practice/Gargle_A.wav,2,3,NEW,Practice,,,,,,,,,,,,
,,,,,,,,,,,,,,5eef2ef1485fb3000809324c,2021-03-21_17h09.46.060,GuessTheSound,2020.2.10,Win32,60,,,,,,,2,1,7.105435,0,4,4,4,1,Practice/Gargle_B.wav,2,2,SIMILAR,Practice,,,,,,,,,,,,
,,,,,,,,,,,,,,5eef2ef1485fb3000809324c,2021-03-21_17h09.46.060,GuessTheSound,2020.2.10,Win32,60,,,,,,,,,,,,,,,SoundMST/CarStart_E.wav,2,3,NEW,C,space,12.043565,2,1,5.727785,0,0,0,0,1,,
,,,,,,,,,,,,,,5eef2ef1485fb3000809324c,2021-03-21_17h09.46.060,GuessTheSound,2020.2.10,Win32,60,,,,,,,,,,,,,,,SoundMST/Bird_E.wav,2,3,NEW,C,,,2,1,0.569395,0,1,1,1,1,,
,,,,,,,,,,,,,,5eef2ef1485fb3000809324c,2021-03-21_17h09.46.060,GuessTheSound,2020.2.10,Win32,60,,,,,,,,,,,,,,,SoundMST/Bubbles_A.wav,2,3,NEW,C,,,2,1,0.908695,0,2,2,2,1,,
,,,,,,,,,,,,,,5eef2ef1485fb3000809324c,2021-03-21_17h09.46.060,GuessTheSound,2020.2.10,Win32,60,,,,,,,,,,,,,,,SoundMST/Horse.wav,2,3,NEW,C,,,2,1,1.10048,0,3,3,3,1,,
,,,,,,,,,,,,,,5eef2ef1485fb3000809324c,2021-03-21_17h09.46.060,GuessTheSound,2020.2.10,Win32,60,,,,,,,,,,,,,,,SoundMST/IceDrop.wav,2,3,NEW,C,,,2,1,0.86675,0,4,4,4,1,,
,,,,,,,,,,,,,,5eef2ef1485fb3000809324c,2021-03-21_17h09.46.060,GuessTheSound,2020.2.10,Win32,60,,,,,,,,,,,,,,,SoundMST/Sleighbells_B.wav,2,3,NEW,C,,,2,1,0.501125,0,5,5,5,1,,
,,,,,,,,,,,,,,5eef2ef1485fb3000809324c,2021-03-21_17h09.46.060,GuessTheSound,2020.2.10,Win32,60,,,,,,,,,,,,,,,SoundMST/Growl_G.wav,2,3,NEW,C,,,2,1,0.5294,0,6,6,6,1,,
,,,,,,,,,,,,,,5eef2ef1485fb3000809324c,2021-03-21_17h09.46.060,GuessTheSound,2020.2.10,Win32,60,,,,,,,,,,,,,,,SoundMST/Chicken_A.wav,2,3,NEW,C,,,2,1,0.24325,0,7,7,7,1,,
,,,,,,,,,,,,,,5eef2ef1485fb3000809324c,2021-03-21_17h09.46.060,GuessTheSound,2020.2.10,Win32,60,,,,,,,,,,,,,,,SoundMST/Slurp.wav,2,3,NEW,C,,,2,1,0.93635,0,8,8,8,1,,
,,,,,,,,,,,,,,5eef2ef1485fb3000809324c,2021-03-21_17h09.46.060,GuessTheSound,2020.2.10,Win32,60,,,,,,,,,,,,,,,SoundMST/CarStart_A.wav,2,2,SIMILAR,C,,,1,0,2.29393,0,9,9,9,1,,
,,,,,,,,,,,,,,5eef2ef1485fb3000809324c,2021-03-21_17h09.46.060,GuessTheSound,2020.2.10,Win32,60,,,,,,,,,,,,,,,SoundMST/Printer.wav,2,3,NEW,C,,,2,1,0.69663,0,10,10,10,1,,
,,,,,,,,,,,,,,5eef2ef1485fb3000809324c,2021-03-21_17h09.46.060,GuessTheSound,2020.2.10,Win32,60,,,,,,,,,,,,,,,SoundMST/Bowlingpins.wav,2,3,NEW,C,,,2,1,0.452275,0,11,11,11,1,,
,,,,,,,,,,,,,,5eef2ef1485fb3000809324c,2021-03-21_17h09.46.060,GuessTheSound,2020.2.10,Win32,60,,,,,,,,,,,,,,,SoundMST/Fireworks.wav,2,3,NEW,C,,,2,1,0.178185,0,12,12,12,1,,
,,,,,,,,,,,,,,5eef2ef1485fb3000809324c,2021-03-21_17h09.46.060,GuessTheSound,2020.2.10,Win32,60,,,,,,,,,,,,,,,SoundMST/Howl.wav,2,3,NEW,C,,,2,1,1.279355,0,13,13,13,1,,
,,,,,,,,,,,,,,5eef2ef1485fb3000809324c,2021-03-21_17h09.46.060,GuessTheSound,2020.2.10,Win32,60,,,,,,,,,,,,,,,SoundMST/Goat_B.wav,2,3,NEW,C,,,2,1,0.433945,0,14,14,14,1,,
,,,,,,,,,,,,,,5eef2ef1485fb3000809324c,2021-03-21_17h09.46.060,GuessTheSound,2020.2.10,Win32,60,,,,,,,,,,,,,,,SoundMST/Horse.wav,1,1,OLD,C,,,2,0,2.35786,0,15,15,15,1,,
,,,,,,,,,,,,,,5eef2ef1485fb3000809324c,2021-03-21_17h09.46.060,GuessTheSound,2020.2.10,Win32,60,,,,,,,,,,,,,,,SoundMST/Laugh_A.wav,2,3,NEW,C,,,2,1,0.00063,0,16,16,16,1,,
,,,,,,,,,,,,,,5eef2ef1485fb3000809324c,2021-03-21_17h09.46.060,GuessTheSound,2020.2.10,Win32,60,,,,,,,,,,,,,,,SoundMST/Bubbles_B.wav,2,2,SIMILAR,C,,,1,0,7.591475,0,17,17,17,1,,
,,,,,,,,,,,,,,5eef2ef1485fb3000809324c,2021-03-21_17h09.46.060,GuessTheSound,2020.2.10,Win32,60,,,,,,,,,,,,,,,SoundMST/Footsteps_C.wav,2,3,NEW,C,,,2,1,1.469295,0,18,18,18,1,,
,,,,,,,,,,,,,,5eef2ef1485fb3000809324c,2021-03-21_17h09.46.060,GuessTheSound,2020.2.10,Win32,60,,,,,,,,,,,,,,,SoundMST/Duck_A.wav,2,3,NEW,C,,,2,1,0.46037,0,19,19,19,1,,
,,,,,,,,,,,,,,5eef2ef1485fb3000809324c,2021-03-21_17h09.46.060,GuessTheSound,2020.2.10,Win32,60,,,,,,,,,,,,,,,SoundMST/Cow.wav,2,3,NEW,C,,,2,1,0.72384,0,20,20,20,1,,
,,,,,,,,,,,,,,5eef2ef1485fb3000809324c,2021-03-21_17h09.46.060,GuessTheSound,2020.2.10,Win32,60,,,,,,,,,,,,,,,SoundMST/Airhorn.wav,2,3,NEW,C,,,2,1,0.869795,0,21,21,21,1,,
,,,,,,,,,,,,,,5eef2ef1485fb3000809324c,2021-03-21_17h09.46.060,GuessTheSound,2020.2.10,Win32,60,,,,,,,,,,,,,,,SoundMST/Printer.wav,1,1,OLD,C,,,2,0,1.2541,0,22,22,22,1,,
,,,,,,,,,,,,,,5eef2ef1485fb3000809324c,2021-03-21_17h09.46.060,GuessTheSound,2020.2.10,Win32,60,,,,,,,,,,,,,,,SoundMST/Sleighbells_B.wav,1,1,OLD,C,,,1,1,0.52399,0,23,23,23,1,,
,,,,,,,,,,,,,,5eef2ef1485fb3000809324c,2021-03-21_17h09.46.060,GuessTheSound,2020.2.10,Win32,60,,,,,,,,,,,,,,,SoundMST/Camera.wav,2,3,NEW,C,,,2,1,0.39767,0,24,24,24,1,,
,,,,,,,,,,,,,,5eef2ef1485fb3000809324c,2021-03-21_17h09.46.060,GuessTheSound,2020.2.10,Win32,60,,,,,,,,,,,,,,,SoundMST/Growl_H.wav,2,2,SIMILAR,C,,,1,0,4.339385,0,25,25,25,1,,
,,,,,,,,,,,,,,5eef2ef1485fb3000809324c,2021-03-21_17h09.46.060,GuessTheSound,2020.2.10,Win32,60,,,,,,,,,,,,,,,SoundMST/Whistle_B.wav,2,3,NEW,C,,,2,1,0.850615,0,26,26,26,1,,
,,,,,,,,,,,,,,5eef2ef1485fb3000809324c,2021-03-21_17h09.46.060,GuessTheSound,2020.2.10,Win32,60,,,,,,,,,,,,,,,SoundMST/Piano_D.wav,2,3,NEW,C,,,2,1,0.40252,0,27,27,27,1,,
,,,,,,,,,,,,,,5eef2ef1485fb3000809324c,2021-03-21_17h09.46.060,GuessTheSound,2020.2.10,Win32,60,,,,,,,,,,,,,,,SoundMST/Coin_D.wav,2,3,NEW,C,,,2,1,1.44799,0,28,28,28,1,,
,,,,,,,,,,,,,,5eef2ef1485fb3000809324c,2021-03-21_17h09.46.060,GuessTheSound,2020.2.10,Win32,60,,,,,,,,,,,,,,,SoundMST/Bird_A.wav,2,2,SIMILAR,C,,,2,1,0.593745,0,29,29,29,1,,
,,,,,,,,,,,,,,5eef2ef1485fb3000809324c,2021-03-21_17h09.46.060,GuessTheSound,2020.2.10,Win32,60,,,,,,,,,,,,,,,SoundMST/PaperRip.wav,2,3,NEW,C,,,2,1,1.402475,0,30,30,30,1,,
,,,,,,,,,,,,,,5eef2ef1485fb3000809324c,2021-03-21_17h09.46.060,GuessTheSound,2020.2.10,Win32,60,,,,,,,,,,,,,,,SoundMST/Slurp.wav,1,1,OLD,C,,,1,1,0.53477,0,31,31,31,1,,
,,,,,,,,,,,,,,5eef2ef1485fb3000809324c,2021-03-21_17h09.46.060,GuessTheSound,2020.2.10,Win32,60,,,,,,,,,,,,,,,SoundMST/Howl.wav,1,1,OLD,C,,,1,1,0.24745,0,32,32,32,1,,
,,,,,,,,,,,,,,5eef2ef1485fb3000809324c,2021-03-21_17h09.46.060,GuessTheSound,2020.2.10,Win32,60,,,,,,,,,,,,,,,SoundMST/IceDrop.wav,1,1,OLD,C,,,1,1,0.44223,0,33,33,33,1,,
,,,,,,,,,,,,,,5eef2ef1485fb3000809324c,2021-03-21_17h09.46.060,GuessTheSound,2020.2.10,Win32,60,,,,,,,,,,,,,,,SoundMST/Pour_B.wav,2,3,NEW,C,,,2,1,0.710475,0,34,34,34,1,,
,,,,,,,,,,,,,,5eef2ef1485fb3000809324c,2021-03-21_17h09.46.060,GuessTheSound,2020.2.10,Win32,60,,,,,,,,,,,,,,,SoundMST/Fireworks.wav,1,1,OLD,C,,,1,1,0.753155,0,35,35,35,1,,
,,,,,,,,,,,,,,5eef2ef1485fb3000809324c,2021-03-21_17h09.46.060,GuessTheSound,2020.2.10,Win32,60,,,,,,,,,,,,,,,SoundMST/Footsteps_F.wav,2,2,SIMILAR,C,,,1,0,1.238635,0,36,36,36,1,,
,,,,,,,,,,,,,,5eef2ef1485fb3000809324c,2021-03-21_17h09.46.060,GuessTheSound,2020.2.10,Win32,60,,,,,,,,,,,,,,,SoundMST/Chicken_A.wav,1,1,OLD,C,,,1,1,0.93082,0,37,37,37,1,,
,,,,,,,,,,,,,,5eef2ef1485fb3000809324c,2021-03-21_17h09.46.060,GuessTheSound,2020.2.10,Win32,60,,,,,,,,,,,,,,,SoundMST/Bullfrog.wav,2,3,NEW,C,,,2,1,0.36821,0,38,38,38,1,,
,,,,,,,,,,,,,,5eef2ef1485fb3000809324c,2021-03-21_17h09.46.060,GuessTheSound,2020.2.10,Win32,60,,,,,,,,,,,,,,,SoundMST/Bowlingpins.wav,1,1,OLD,C,,,1,1,0.582075,0,39,39,39,1,,
,,,,,,,,,,,,,,5eef2ef1485fb3000809324c,2021-03-21_17h09.46.060,GuessTheSound,2020.2.10,Win32,60,,,,,,,,,,,,,,,SoundMST/Helicopter_A.wav,2,3,NEW,C,,,2,1,0.077895,0,40,40,40,1,,
,,,,,,,,,,,,,,5eef2ef1485fb3000809324c,2021-03-21_17h09.46.060,GuessTheSound,2020.2.10,Win32,60,,,,,,,,,,,,,,,SoundMST/Goat_C.wav,2,2,SIMILAR,C,,,1,0,0.92216,0,41,41,41,1,,
,,,,,,,,,,,,,,5eef2ef1485fb3000809324c,2021-03-21_17h09.46.060,GuessTheSound,2020.2.10,Win32,60,,,,,,,,,,,,,,,SoundMST/HairDryer_A.wav,2,3,NEW,C,,,2,1,0.90562,0,42,42,42,1,,
,,,,,,,,,,,,,,5eef2ef1485fb3000809324c,2021-03-21_17h09.46.060,GuessTheSound,2020.2.10,Win32,60,,,,,,,,,,,,,,,SoundMST/Duck_B.wav,2,2,SIMILAR,C,,,1,0,0.31414,0,43,43,43,1,,
,,,,,,,,,,,,,,5eef2ef1485fb3000809324c,2021-03-21_17h09.46.060,GuessTheSound,2020.2.10,Win32,60,,,,,,,,,,,,,,,SoundMST/PaperRip.wav,1,1,OLD,C,,,2,0,0.96243,0,44,44,44,1,,
,,,,,,,,,,,,,,5eef2ef1485fb3000809324c,2021-03-21_17h09.46.060,GuessTheSound,2020.2.10,Win32,60,,,,,,,,,,,,,,,SoundMST/Dog_H.wav,2,3,NEW,C,,,2,1,0.52453,0,45,45,45,1,,
,,,,,,,,,,,,,,5eef2ef1485fb3000809324c,2021-03-21_17h09.46.060,GuessTheSound,2020.2.10,Win32,60,,,,,,,,,,,,,,,SoundMST/Camera.wav,1,1,OLD,C,,,1,1,0.48927,0,46,46,46,1,,
,,,,,,,,,,,,,,5eef2ef1485fb3000809324c,2021-03-21_17h09.46.060,GuessTheSound,2020.2.10,Win32,60,,,,,,,,,,,,,,,SoundMST/Laugh_D.wav,2,2,SIMILAR,C,,,2,1,1.396665,0,47,47,47,1,,
,,,,,,,,,,,,,,5eef2ef1485fb3000809324c,2021-03-21_17h09.46.060,GuessTheSound,2020.2.10,Win32,60,,,,,,,,,,,,,,,SoundMST/Sneeze_B.wav,2,3,NEW,C,,,2,1,0.540935,0,48,48,48,1,,
,,,,,,,,,,,,,,5eef2ef1485fb3000809324c,2021-03-21_17h09.46.060,GuessTheSound,2020.2.10,Win32,60,,,,,,,,,,,,,,,SoundMST/Cow.wav,1,1,OLD,C,,,1,1,0.26755,0,49,49,49,1,,
,,,,,,,,,,,,,,5eef2ef1485fb3000809324c,2021-03-21_17h09.46.060,GuessTheSound,2020.2.10,Win32,60,,,,,,,,,,,,,,,SoundMST/Donkey.wav,2,3,NEW,C,,,2,1,1.06798,0,50,50,50,1,,
,,,,,,,,,,,,,,5eef2ef1485fb3000809324c,2021-03-21_17h09.46.060,GuessTheSound,2020.2.10,Win32,60,,,,,,,,,,,,,,,SoundMST/Coin_E.wav,2,2,SIMILAR,C,,,1,0,9.98135,0,51,51,51,1,,
,,,,,,,,,,,,,,5eef2ef1485fb3000809324c,2021-03-21_17h09.46.060,GuessTheSound,2020.2.10,Win32,60,,,,,,,,,,,,,,,SoundMST/Buzz.wav,2,3,NEW,C,,,2,1,2.981615,0,52,52,52,1,,
,,,,,,,,,,,,,,5eef2ef1485fb3000809324c,2021-03-21_17h09.46.060,GuessTheSound,2020.2.10,Win32,60,,,,,,,,,,,,,,,SoundMST/Piano_D.wav,1,1,OLD,C,,,2,0,1.701705,0,53,53,53,1,,
,,,,,,,,,,,,,,5eef2ef1485fb3000809324c,2021-03-21_17h09.46.060,GuessTheSound,2020.2.10,Win32,60,,,,,,,,,,,,,,,SoundMST/Hammer_A.wav,2,3,NEW,C,,,2,1,5.22073,0,54,54,54,1,,
,,,,,,,,,,,,,,5eef2ef1485fb3000809324c,2021-03-21_17h09.46.060,GuessTheSound,2020.2.10,Win32,60,,,,,,,,,,,,,,,SoundMST/Airhorn.wav,1,1,OLD,C,,,2,0,6.631845,0,55,55,55,1,,
,,,,,,,,,,,,,,5eef2ef1485fb3000809324c,2021-03-21_17h09.46.060,GuessTheSound,2020.2.10,Win32,60,,,,,,,,,,,,,,,SoundMST/Whistle_C.wav,2,2,SIMILAR,C,,,2,1,0.421665,0,56,56,56,1,,
,,,,,,,,,,,,,,5eef2ef1485fb3000809324c,2021-03-21_17h09.46.060,GuessTheSound,2020.2.10,Win32,60,,,,,,,,,,,,,,,SoundMST/Faucet_A.wav,2,3,NEW,C,,,2,1,1.35764,0,57,57,57,1,,
,,,,,,,,,,,,,,5eef2ef1485fb3000809324c,2021-03-21_17h09.46.060,GuessTheSound,2020.2.10,Win32,60,,,,,,,,,,,,,,,SoundMST/Pour_C.wav,2,2,SIMILAR,C,,,2,1,4.86769,0,58,58,58,1,,
,,,,,,,,,,,,,,5eef2ef1485fb3000809324c,2021-03-21_17h09.46.060,GuessTheSound,2020.2.10,Win32,60,,,,,,,,,,,,,,,SoundMST/Crow_B.wav,2,3,NEW,C,,,2,1,1.129285,0,59,59,59,1,,
,,,,,,,,,,,,,,5eef2ef1485fb3000809324c,2021-03-21_17h09.46.060,GuessTheSound,2020.2.10,Win32,60,,,,,,,,,,,,,,,SoundMST/Trumpet_B.wav,2,3,NEW,C,,,2,1,0.776305,0,60,60,60,1,,
,,,,,,,,,,,,,,5eef2ef1485fb3000809324c,2021-03-21_17h09.46.060,GuessTheSound,2020.2.10,Win32,60,,,,,,,,,,,,,,,SoundMST/Bullfrog.wav,1,1,OLD,C,,,2,0,0.349995,0,61,61,61,1,,
,,,,,,,,,,,,,,5eef2ef1485fb3000809324c,2021-03-21_17h09.46.060,GuessTheSound,2020.2.10,Win32,60,,,,,,,,,,,,,,,SoundMST/Helicopter_A.wav,1,1,OLD,C,,,1,1,0.108755,0,62,62,62,1,,
,,,,,,,,,,,,,,5eef2ef1485fb3000809324c,2021-03-21_17h09.46.060,GuessTheSound,2020.2.10,Win32,60,,,,,,,,,,,,,,,SoundMST/Elephant_C.wav,2,3,NEW,C,,,2,1,0.35418,0,63,63,63,1,,
,,,,,,,,,,,,,,5eef2ef1485fb3000809324c,2021-03-21_17h09.46.060,GuessTheSound,2020.2.10,Win32,60,,,,,,,,,,,,,,,SoundMST/Sneeze_B.wav,1,1,OLD,C,,,1,1,0.34299,0,64,64,64,1,,
,,,,,,,,,,,,,,5eef2ef1485fb3000809324c,2021-03-21_17h09.46.060,GuessTheSound,2020.2.10,Win32,60,,,,,,,,,,,,,,,SoundMST/Chime_B.wav,2,3,NEW,C,,,2,1,0.50806,0,65,65,65,1,,
,,,,,,,,,,,,,,5eef2ef1485fb3000809324c,2021-03-21_17h09.46.060,GuessTheSound,2020.2.10,Win32,60,,,,,,,,,,,,,,,SoundMST/Phone_D.wav,2,3,NEW,C,,,2,1,0.263365,0,66,66,66,1,,
,,,,,,,,,,,,,,5eef2ef1485fb3000809324c,2021-03-21_17h09.46.060,GuessTheSound,2020.2.10,Win32,60,,,,,,,,,,,,,,,SoundMST/HairDryer_A.wav,1,1,OLD,C,,,1,1,0.35256,0,67,67,67,1,,
,,,,,,,,,,,,,,5eef2ef1485fb3000809324c,2021-03-21_17h09.46.060,GuessTheSound,2020.2.10,Win32,60,,,,,,,,,,,,,,,SoundMST/Puff_A.wav,2,3,NEW,C,,,2,1,0.234865,0,68,68,68,1,,
,,,,,,,,,,,,,,5eef2ef1485fb3000809324c,2021-03-21_17h09.46.060,GuessTheSound,2020.2.10,Win32,60,,,,,,,,,,,,,,,SoundMST/Dog_F.wav,2,2,SIMILAR,C,,,1,0,0.40555,0,69,69,69,1,,
,,,,,,,,,,,,,,5eef2ef1485fb3000809324c,2021-03-21_17h09.46.060,GuessTheSound,2020.2.10,Win32,60,,,,,,,,,,,,,,,SoundMST/Donkey.wav,1,1,OLD,C,,,1,1,2.87052,0,70,70,70,1,,
,,,,,,,,,,,,,,5eef2ef1485fb3000809324c,2021-03-21_17h09.46.060,GuessTheSound,2020.2.10,Win32,60,,,,,,,,,,,,,,,SoundMST/Toilet_B.wav,2,3,NEW,C,,,1,0,1.081555,0,71,71,71,1,,
,,,,,,,,,,,,,,5eef2ef1485fb3000809324c,2021-03-21_17h09.46.060,GuessTheSound,2020.2.10,Win32,60,,,,,,,,,,,,,,,SoundMST/Writing_A.wav,2,3,NEW,C,,,2,1,0.23016,0,72,72,72,1,,
,,,,,,,,,,,,,,5eef2ef1485fb3000809324c,2021-03-21_17h09.46.060,GuessTheSound,2020.2.10,Win32,60,,,,,,,,,,,,,,,SoundMST/Cello.wav,2,3,NEW,C,,,2,1,3.34108,0,73,73,73,1,,
,,,,,,,,,,,,,,5eef2ef1485fb3000809324c,2021-03-21_17h09.46.060,GuessTheSound,2020.2.10,Win32,60,,,,,,,,,,,,,,,SoundMST/Crow_A.wav,2,2,SIMILAR,C,,,2,1,0.884455,0,74,74,74,1,,
,,,,,,,,,,,,,,5eef2ef1485fb3000809324c,2021-03-21_17h09.46.060,GuessTheSound,2020.2.10,Win32,60,,,,,,,,,,,,,,,SoundMST/Hammer_A.wav,1,1,OLD,C,,,1,1,3.191715,0,75,75,75,1,,
,,,,,,,,,,,,,,5eef2ef1485fb3000809324c,2021-03-21_17h09.46.060,GuessTheSound,2020.2.10,Win32,60,,,,,,,,,,,,,,,SoundMST/Cuckoo_A.wav,2,3,NEW,C,,,2,1,0.222835,0,76,76,76,1,,
,,,,,,,,,,,,,,5eef2ef1485fb3000809324c,2021-03-21_17h09.46.060,GuessTheSound,2020.2.10,Win32,60,,,,,,,,,,,,,,,SoundMST/Buzz.wav,1,1,OLD,C,,,1,1,0.34471,0,77,77,77,1,,
,,,,,,,,,,,,,,5eef2ef1485fb3000809324c,2021-03-21_17h09.46.060,GuessTheSound,2020.2.10,Win32,60,,,,,,,,,,,,,,,SoundMST/Siren_E.wav,2,3,NEW,C,,,2,1,0.12191,0,78,78,78,1,,
,,,,,,,,,,,,,,5eef2ef1485fb3000809324c,2021-03-21_17h09.46.060,GuessTheSound,2020.2.10,Win32,60,,,,,,,,,,,,,,,SoundMST/Trumpet_B.wav,1,1,OLD,C,,,2,0,1.235165,0,79,79,79,1,,
,,,,,,,,,,,,,,5eef2ef1485fb3000809324c,2021-03-21_17h09.46.060,GuessTheSound,2020.2.10,Win32,60,,,,,,,,,,,,,,,SoundMST/Wind_B.wav,2,3,NEW,C,,,2,1,0.261145,0,80,80,80,1,,
,,,,,,,,,,,,,,5eef2ef1485fb3000809324c,2021-03-21_17h09.46.060,GuessTheSound,2020.2.10,Win32,60,,,,,,,,,,,,,,,SoundMST/Cat_A.wav,2,3,NEW,C,,,2,1,1.39761,0,81,81,81,1,,
,,,,,,,,,,,,,,5eef2ef1485fb3000809324c,2021-03-21_17h09.46.060,GuessTheSound,2020.2.10,Win32,60,,,,,,,,,,,,,,,SoundMST/Phone_E.wav,2,2,SIMILAR,C,,,2,1,1.319075,0,82,82,82,1,,
,,,,,,,,,,,,,,5eef2ef1485fb3000809324c,2021-03-21_17h09.46.060,GuessTheSound,2020.2.10,Win32,60,,,,,,,,,,,,,,,SoundMST/Chomp_A.wav,2,3,NEW,C,,,2,1,0.701715,0,83,83,83,1,,
,,,,,,,,,,,,,,5eef2ef1485fb3000809324c,2021-03-21_17h09.46.060,GuessTheSound,2020.2.10,Win32,60,,,,,,,,,,,,,,,SoundMST/Elephant_A.wav,2,2,SIMILAR,C,,,2,1,0.2176,0,84,84,84,1,,
,,,,,,,,,,,,,,5eef2ef1485fb3000809324c,2021-03-21_17h09.46.060,GuessTheSound,2020.2.10,Win32,60,,,,,,,,,,,,,,,SoundMST/Cup.wav,2,3,NEW,C,,,2,1,1.17793,0,85,85,85,1,,
,,,,,,,,,,,,,,5eef2ef1485fb3000809324c,2021-03-21_17h09.46.060,GuessTheSound,2020.2.10,Win32,60,,,,,,,,,,,,,,,SoundMST/Chime_A.wav,2,2,SIMILAR,C,,,1,0,5.868325,0,86,86,86,1,,
,,,,,,,,,,,,,,5eef2ef1485fb3000809324c,2021-03-21_17h09.46.060,GuessTheSound,2020.2.10,Win32,60,,,,,,,,,,,,,,,SoundMST/Droplet_B.wav,2,3,NEW,C,,,2,1,0.288145,0,87,87,87,1,,
,,,,,,,,,,,,,,5eef2ef1485fb3000809324c,2021-03-21_17h09.46.060,GuessTheSound,2020.2.10,Win32,60,,,,,,,,,,,,,,,SoundMST/Faucet_C.wav,2,2,SIMILAR,C,,,1,0,1.3352,0,88,88,88,1,,
,,,,,,,,,,,,,,5eef2ef1485fb3000809324c,2021-03-21_17h09.46.060,GuessTheSound,2020.2.10,Win32,60,,,,,,,,,,,,,,,SoundMST/Puff_A.wav,1,1,OLD,C,,,1,1,5.81245,0,89,89,89,1,,
,,,,,,,,,,,,,,5eef2ef1485fb3000809324c,2021-03-21_17h09.46.060,GuessTheSound,2020.2.10,Win32,60,,,,,,,,,,,,,,,SoundMST/Clap_B.wav,2,3,NEW,C,,,2,1,1.11826,0,90,90,90,1,,
,,,,,,,,,,,,,,5eef2ef1485fb3000809324c,2021-03-21_17h09.46.060,GuessTheSound,2020.2.10,Win32,60,,,,,,,,,,,,,,,SoundMST/Cello.wav,1,1,OLD,C,,,1,1,4.078255,0,91,91,91,1,,
,,,,,,,,,,,,,,5eef2ef1485fb3000809324c,2021-03-21_17h09.46.060,GuessTheSound,2020.2.10,Win32,60,,,,,,,,,,,,,,,SoundMST/Mosquito_B.wav,2,3,NEW,C,,,2,1,1.60794,0,92,92,92,1,,
,,,,,,,,,,,,,,5eef2ef1485fb3000809324c,2021-03-21_17h09.46.060,GuessTheSound,2020.2.10,Win32,60,,,,,,,,,,,,,,,SoundMST/Writing_C.wav,2,2,SIMILAR,C,,,2,1,0.892195,0,93,93,93,1,,
,,,,,,,,,,,,,,5eef2ef1485fb3000809324c,2021-03-21_17h09.46.060,GuessTheSound,2020.2.10,Win32,60,,,,,,,,,,,,,,,SoundMST/Guitar_B.wav,2,3,NEW,C,,,2,1,3.10806,0,94,94,94,1,,
,,,,,,,,,,,,,,5eef2ef1485fb3000809324c,2021-03-21_17h09.46.060,GuessTheSound,2020.2.10,Win32,60,,,,,,,,,,,,,,,SoundMST/Toilet_B.wav,1,1,OLD,C,,,1,1,1.146695,0,95,95,95,1,,
,,,,,,,,,,,,,,5eef2ef1485fb3000809324c,2021-03-21_17h09.46.060,GuessTheSound,2020.2.10,Win32,60,,,,,,,,,,,,,,,SoundMST/Bagpipe.wav,2,3,NEW,C,,,2,1,1.38232,0,96,96,96,1,,
,,,,,,,,,,,,,,5eef2ef1485fb3000809324c,2021-03-21_17h09.46.060,GuessTheSound,2020.2.10,Win32,60,,,,,,,,,,,,,,,SoundMST/Cuckoo_A.wav,1,1,OLD,C,,,2,0,0.821475,0,97,97,97,1,,
,,,,,,,,,,,,,,5eef2ef1485fb3000809324c,2021-03-21_17h09.46.060,GuessTheSound,2020.2.10,Win32,60,,,,,,,,,,,,,,,SoundMST/Wind_B.wav,1,1,OLD,C,,,1,1,0.03699,0,98,98,98,1,,
,,,,,,,,,,,,,,5eef2ef1485fb3000809324c,2021-03-21_17h09.46.060,GuessTheSound,2020.2.10,Win32,60,,,,,,,,,,,,,,,SoundMST/Cough_D.wav,2,3,NEW,C,,,2,1,1.852155,0,99,99,99,1,,
,,,,,,,,,,,,,,5eef2ef1485fb3000809324c,2021-03-21_17h09.46.060,GuessTheSound,2020.2.10,Win32,60,,,,,,,,,,,,,,,SoundMST/ManWhistle.wav,2,3,NEW,C,,,2,1,1.89127,0,100,100,100,1,,
,,,,,,,,,,,,,,5eef2ef1485fb3000809324c,2021-03-21_17h09.46.060,GuessTheSound,2020.2.10,Win32,60,,,,,,,,,,,,,,,SoundMST/Chomp_C.wav,2,2,SIMILAR,C,,,2,1,4.00427,0,101,101,101,1,,
,,,,,,,,,,,,,,5eef2ef1485fb3000809324c,2021-03-21_17h09.46.060,GuessTheSound,2020.2.10,Win32,60,,,,,,,,,,,,,,,SoundMST/Siren_A.wav,2,2,SIMILAR,C,,,2,1,0.12332,0,102,102,102,1,,
,,,,,,,,,,,,,,5eef2ef1485fb3000809324c,2021-03-21_17h09.46.060,GuessTheSound,2020.2.10,Win32,60,,,,,,,,,,,,,,,SoundMST/Thunder_A.wav,2,3,NEW,C,,,2,1,0.252145,0,103,103,103,1,,
,,,,,,,,,,,,,,5eef2ef1485fb3000809324c,2021-03-21_17h09.46.060,GuessTheSound,2020.2.10,Win32,60,,,,,,,,,,,,,,,SoundMST/Cat_A.wav,1,1,OLD,C,,,1,1,2.3935,0,104,104,104,1,,
,,,,,,,,,,,,,,5eef2ef1485fb3000809324c,2021-03-21_17h09.46.060,GuessTheSound,2020.2.10,Win32,60,,,,,,,,,,,,,,,SoundMST/Snore_C.wav,2,3,NEW,C,,,2,1,1.074985,0,105,105,105,1,,
,,,,,,,,,,,,,,5eef2ef1485fb3000809324c,2021-03-21_17h09.46.060,GuessTheSound,2020.2.10,Win32,60,,,,,,,,,,,,,,,SoundMST/Cup.wav,1,1,OLD,C,,,1,1,0.951515,0,106,106,106,1,,
,,,,,,,,,,,,,,5eef2ef1485fb3000809324c,2021-03-21_17h09.46.060,GuessTheSound,2020.2.10,Win32,60,,,,,,,,,,,,,,,SoundMST/Baby_F.wav,2,3,NEW,C,,,2,1,0.284495,0,107,107,107,1,,
,,,,,,,,,,,,,,5eef2ef1485fb3000809324c,2021-03-21_17h09.46.060,GuessTheSound,2020.2.10,Win32,60,,,,,,,,,,,,,,,SoundMST/Droplet_B.wav,1,1,OLD,C,,,1,1,0.450905,0,108,108,108,1,,
,,,,,,,,,,,,,,5eef2ef1485fb3000809324c,2021-03-21_17h09.46.060,GuessTheSound,2020.2.10,Win32,60,,,,,,,,,,,,,,,SoundMST/DialTone.wav,2,3,NEW,C,,,2,1,1.08253,0,109,109,109,1,,
,,,,,,,,,,,,,,5eef2ef1485fb3000809324c,2021-03-21_17h09.46.060,GuessTheSound,2020.2.10,Win32,60,,,,,,,,,,,,,,,SoundMST/Clap_C.wav,2,2,SIMILAR,C,,,2,1,0.300615,0,110,110,110,1,,
,,,,,,,,,,,,,,5eef2ef1485fb3000809324c,2021-03-21_17h09.46.060,GuessTheSound,2020.2.10,Win32,60,,,,,,,,,,,,,,,SoundMST/Heartbeat.wav,2,3,NEW,C,,,2,1,0.28445,0,111,111,111,1,,
,,,,,,,,,,,,,,5eef2ef1485fb3000809324c,2021-03-21_17h09.46.060,GuessTheSound,2020.2.10,Win32,60,,,,,,,,,,,,,,,SoundMST/Guitar_B.wav,1,1,OLD,C,,,1,1,1.752225,0,112,112,112,1,,
,,,,,,,,,,,,,,5eef2ef1485fb3000809324c,2021-03-21_17h09.46.060,GuessTheSound,2020.2.10,Win32,60,,,,,,,,,,,,,,,SoundMST/Typing.wav,2,3,NEW,C,,,2,1,0.48628,0,113,113,113,1,,
,,,,,,,,,,,,,,5eef2ef1485fb3000809324c,2021-03-21_17h09.46.060,GuessTheSound,2020.2.10,Win32,60,,,,,,,,,,,,,,,SoundMST/Mosquito_B.wav,1,1,OLD,C,,,1,1,0.904235,0,114,114,114,1,,
,,,,,,,,,,,,,,5eef2ef1485fb3000809324c,2021-03-21_17h09.46.060,GuessTheSound,2020.2.10,Win32,60,,,,,,,,,,,,,,,SoundMST/Airplane_B.wav,2,3,NEW,C,,,2,1,1.96873,0,115,115,115,1,,
,,,,,,,,,,,,,,5eef2ef1485fb3000809324c,2021-03-21_17h09.46.060,GuessTheSound,2020.2.10,Win32,60,,,,,,,,,,,,,,,SoundMST/ManWhistle.wav,1,1,OLD,C,,,1,1,1.138335,0,116,116,116,1,,
,,,,,,,,,,,,,,5eef2ef1485fb3000809324c,2021-03-21_17h09.46.060,GuessTheSound,2020.2.10,Win32,60,,,,,,,,,,,,,,,SoundMST/Steam.wav,2,3,NEW,C,,,2,1,1.074905,0,117,117,117,1,,
,,,,,,,,,,,,,,5eef2ef1485fb3000809324c,2021-03-21_17h09.46.060,GuessTheSound,2020.2.10,Win32,60,,,,,,,,,,,,,,,SoundMST/Baby_E.wav,2,2,SIMILAR,C,,,2,1,0.284185,0,118,118,118,1,,
,,,,,,,,,,,,,,5eef2ef1485fb3000809324c,2021-03-21_17h09.46.060,GuessTheSound,2020.2.10,Win32,60,,,,,,,,,,,,,,,SoundMST/Bagpipe.wav,1,1,OLD,C,,,2,0,1.77336,0,119,119,119,1,,
,,,,,,,,,,,,,,5eef2ef1485fb3000809324c,2021-03-21_17h09.46.060,GuessTheSound,2020.2.10,Win32,60,,,,,,,,,,,,,,,SoundMST/Cough_F.wav,2,2,SIMILAR,C,,,2,1,0.478085,0,120,120,120,1,,
,,,,,,,,,,,,,,5eef2ef1485fb3000809324c,2021-03-21_17h09.46.060,GuessTheSound,2020.2.10,Win32,60,,,,,,,,,,,,,,,SoundMST/Airplane_B.wav,1,1,OLD,C,,,1,1,1.099915,0,121,121,121,1,,
,,,,,,,,,,,,,,5eef2ef1485fb3000809324c,2021-03-21_17h09.46.060,GuessTheSound,2020.2.10,Win32,60,,,,,,,,,,,,,,,SoundMST/DialTone.wav,1,1,OLD,C,,,2,0,2.336055,0,122,122,122,1,,
,,,,,,,,,,,,,,5eef2ef1485fb3000809324c,2021-03-21_17h09.46.060,GuessTheSound,2020.2.10,Win32,60,,,,,,,,,,,,,,,SoundMST/Thunder_A.wav,1,1,OLD,C,,,1,1,0.150635,0,123,123,123,1,,
,,,,,,,,,,,,,,5eef2ef1485fb3000809324c,2021-03-21_17h09.46.060,GuessTheSound,2020.2.10,Win32,60,,,,,,,,,,,,,,,SoundMST/Typing.wav,1,1,OLD,C,,,1,1,0.08952,0,124,124,124,1,,
,,,,,,,,,,,,,,5eef2ef1485fb3000809324c,2021-03-21_17h09.46.060,GuessTheSound,2020.2.10,Win32,60,,,,,,,,,,,,,,,SoundMST/Snore_E.wav,2,2,SIMILAR,C,,,1,0,0.387725,0,125,125,125,1,,
,,,,,,,,,,,,,,5eef2ef1485fb3000809324c,2021-03-21_17h09.46.060,GuessTheSound,2020.2.10,Win32,60,,,,,,,,,,,,,,,SoundMST/Heartbeat.wav,1,1,OLD,C,,,1,1,0.37155,0,126,126,126,1,,
,,,,,,,,,,,,,,5eef2ef1485fb3000809324c,2021-03-21_17h09.46.060,GuessTheSound,2020.2.10,Win32,60,,,,,,,,,,,,,,,SoundMST/Steam.wav,1,1,OLD,C,,,1,1,0.225265,0,127,127,127,1,,
,,,,,,,,,,,,,,5eef2ef1485fb3000809324c,2021-03-21_17h09.46.060,GuessTheSound,2020.2.10,Win32,60,,,,,,,,,,,,,,,SoundMST/Airplane_B.wav,2,3,NEW,D,,,1,0,2.01242,0,128,128,128,1,,
,,,,,,,,,,,,,,5eef2ef1485fb3000809324c,2021-03-21_17h09.46.060,GuessTheSound,2020.2.10,Win32,60,,,,,,,,,,,,,,,,,,,,,,,,,,,,,,space,12.73551
