WelcomeContinueKey2.keys,WelcomeContinueKey2.rt,VolumeContinueKey.keys,VolumeContinueKey.rt,ResponseBox.text,trials.thisRepN,trials.thisTrialN,trials.thisN,trials.thisIndex,trials.ran,SoundFiles2,participant,session,date,expName,psychopyVersion,OS,frameRate,ExitKey.keys,ExitKey.rt
space,7.03056,space,4.06839,barking,0,0,0,69,1,Dog_C.wav,5f4cf80c0bce10081b6460e2,001,2021-01-05_15h51.52.480,GuessTheSound,2020.2.10,MacIntel,60,,
,,,,engine start,0,1,1,66,1,Carstart_C.wav,5f4cf80c0bce10081b6460e2,001,2021-01-05_15h51.52.480,GuessTheSound,2020.2.10,MacIntel,60,,
,,,,fireworks,0,2,2,5,1,Initial/NoRepeat/Fireworks.wav,5f4cf80c0bce10081b6460e2,001,2021-01-05_15h51.52.480,GuessTheSound,2020.2.10,MacIntel,60,,
,,,,engine starting ,0,3,3,28,1,Initial/Doubled/CarStart_A.wav,5f4cf80c0bce10081b6460e2,001,2021-01-05_15h51.52.480,GuessTheSound,2020.2.10,MacIntel,60,,
,,,,keyboard typing,0,4,4,6,1,Test/Foils/Typing.wav,5f4cf80c0bce10081b6460e2,001,2021-01-05_15h51.52.480,GuessTheSound,2020.2.10,MacIntel,60,,
,,,,bird wistle,0,5,5,24,1,Test/Foils/Bird.wav,5f4cf80c0bce10081b6460e2,001,2021-01-05_15h51.52.480,GuessTheSound,2020.2.10,MacIntel,60,,
,,,,airplane,0,6,6,10,1,Initial/Repeat/Airplane_B.wav,5f4cf80c0bce10081b6460e2,001,2021-01-05_15h51.52.480,GuessTheSound,2020.2.10,MacIntel,60,,
,,,,telephone,0,7,7,27,1,Test/Foils/DialTone.wav,5f4cf80c0bce10081b6460e2,001,2021-01-05_15h51.52.480,GuessTheSound,2020.2.10,MacIntel,60,,
,,,,bells,0,8,8,35,1,Initial/NoRepeat/Sleighbells_B.wav,5f4cf80c0bce10081b6460e2,001,2021-01-05_15h51.52.480,GuessTheSound,2020.2.10,MacIntel,60,,
,,,,water drops,0,9,9,0,1,Initial/NoRepeat/Droplet_B.wav,5f4cf80c0bce10081b6460e2,001,2021-01-05_15h51.52.480,GuessTheSound,2020.2.10,MacIntel,60,,
,,,,sink with open water,0,10,10,36,1,Initial/NoRepeat/Faucet_A.wav,5f4cf80c0bce10081b6460e2,001,2021-01-05_15h51.52.480,GuessTheSound,2020.2.10,MacIntel,60,,
,,,,cat meowing,0,11,11,37,1,Initial/Doubled/Cat_A.wav,5f4cf80c0bce10081b6460e2,001,2021-01-05_15h51.52.480,GuessTheSound,2020.2.10,MacIntel,60,,
,,,,bird whistling,0,12,12,64,1,Bird_D.wav,5f4cf80c0bce10081b6460e2,001,2021-01-05_15h51.52.480,GuessTheSound,2020.2.10,MacIntel,60,,
,,,,a man coughing ,0,13,13,38,1,Initial/Doubled/Cough_A.wav,5f4cf80c0bce10081b6460e2,001,2021-01-05_15h51.52.480,GuessTheSound,2020.2.10,MacIntel,60,,
,,,,a man gargling ,0,14,14,47,1,Initial/Doubled/Gargle_A.wav,5f4cf80c0bce10081b6460e2,001,2021-01-05_15h51.52.480,GuessTheSound,2020.2.10,MacIntel,60,,
,,,,a woman coughing,0,15,15,75,1,Cough_C.wav,5f4cf80c0bce10081b6460e2,001,2021-01-05_15h51.52.480,GuessTheSound,2020.2.10,MacIntel,60,,
,,,,applause,0,16,16,41,1,Initial/Doubled/Clap_A.wav,5f4cf80c0bce10081b6460e2,001,2021-01-05_15h51.52.480,GuessTheSound,2020.2.10,MacIntel,60,,
,,,,a man clearing his voice,0,17,17,74,1,Cough_B.wav,5f4cf80c0bce10081b6460e2,001,2021-01-05_15h51.52.480,GuessTheSound,2020.2.10,MacIntel,60,,
,,,,a person drinking a soup ,0,18,18,31,1,Test/Foils/Slurp.wav,5f4cf80c0bce10081b6460e2,001,2021-01-05_15h51.52.480,GuessTheSound,2020.2.10,MacIntel,60,,
,,,,some hens,0,19,19,17,1,Initial/Doubled/Chicken_A.wav,5f4cf80c0bce10081b6460e2,001,2021-01-05_15h51.52.480,GuessTheSound,2020.2.10,MacIntel,60,,
,,,,a baby crying,0,20,20,13,1,Initial/NoRepeat/Baby_B.wav,5f4cf80c0bce10081b6460e2,001,2021-01-05_15h51.52.480,GuessTheSound,2020.2.10,MacIntel,60,,
,,,,a big engine starting,0,21,21,65,1,CarStart_B.wav,5f4cf80c0bce10081b6460e2,001,2021-01-05_15h51.52.480,GuessTheSound,2020.2.10,MacIntel,60,,
,,,,duck,0,22,22,23,1,Initial/NoRepeat/Duck_A.wav,5f4cf80c0bce10081b6460e2,001,2021-01-05_15h51.52.480,GuessTheSound,2020.2.10,MacIntel,60,,
,,,,a sport car's engine start,0,23,23,67,1,CarStart_D.wav,5f4cf80c0bce10081b6460e2,001,2021-01-05_15h51.52.480,GuessTheSound,2020.2.10,MacIntel,60,,
,,,,helicopter,0,24,24,39,1,Initial/NoRepeat/Helicopter_A.wav,5f4cf80c0bce10081b6460e2,001,2021-01-05_15h51.52.480,GuessTheSound,2020.2.10,MacIntel,60,,
,,,,police siren,0,25,25,12,1,Initial/Doubled/Siren_A.wav,5f4cf80c0bce10081b6460e2,001,2021-01-05_15h51.52.480,GuessTheSound,2020.2.10,MacIntel,60,,
,,,,a little dog barking,0,26,26,70,1,Dog_D.wav,5f4cf80c0bce10081b6460e2,001,2021-01-05_15h51.52.480,GuessTheSound,2020.2.10,MacIntel,60,,
,,,,tiger,0,27,27,18,1,Initial/Doubled/Growl_A.wav,5f4cf80c0bce10081b6460e2,001,2021-01-05_15h51.52.480,GuessTheSound,2020.2.10,MacIntel,60,,
,,,,people laughing ,0,28,28,34,1,Initial/Doubled/Laugh_A.wav,5f4cf80c0bce10081b6460e2,001,2021-01-05_15h51.52.480,GuessTheSound,2020.2.10,MacIntel,60,,
,,,,a baby crying ,0,29,29,56,1,Baby_A.wav,5f4cf80c0bce10081b6460e2,001,2021-01-05_15h51.52.480,GuessTheSound,2020.2.10,MacIntel,60,,
,,,,wallclock,0,30,30,44,1,Initial/Doubled/Cuckoo_A.wav,5f4cf80c0bce10081b6460e2,001,2021-01-05_15h51.52.480,GuessTheSound,2020.2.10,MacIntel,60,,
,,,,thunder,0,31,31,43,1,Initial/NoRepeat/Thunder_A.wav,5f4cf80c0bce10081b6460e2,001,2021-01-05_15h51.52.480,GuessTheSound,2020.2.10,MacIntel,60,,
,,,,wolf,0,32,32,45,1,Initial/Repeat/Howl.wav,5f4cf80c0bce10081b6460e2,001,2021-01-05_15h51.52.480,GuessTheSound,2020.2.10,MacIntel,60,,
,,,,piano,0,33,33,2,1,Initial/Doubled/Piano_A.wav,5f4cf80c0bce10081b6460e2,001,2021-01-05_15h51.52.480,GuessTheSound,2020.2.10,MacIntel,60,,
,,,,little bird whistling,0,34,34,62,1,Bird_B.wav,5f4cf80c0bce10081b6460e2,001,2021-01-05_15h51.52.480,GuessTheSound,2020.2.10,MacIntel,60,,
,,,,a person eating chips,0,35,35,71,1,Chomp_B.wav,5f4cf80c0bce10081b6460e2,001,2021-01-05_15h51.52.480,GuessTheSound,2020.2.10,MacIntel,60,,
,,,,a cow,0,36,36,46,1,Initial/NoRepeat/Cow.wav,5f4cf80c0bce10081b6460e2,001,2021-01-05_15h51.52.480,GuessTheSound,2020.2.10,MacIntel,60,,
,,,,elephant,0,37,37,48,1,Initial/NoRepeat/Elephant_A.wav,5f4cf80c0bce10081b6460e2,001,2021-01-05_15h51.52.480,GuessTheSound,2020.2.10,MacIntel,60,,
,,,,ambulance siren,0,38,38,54,1,Siren_C.wav,5f4cf80c0bce10081b6460e2,001,2021-01-05_15h51.52.480,GuessTheSound,2020.2.10,MacIntel,60,,
,,,,coffee,0,39,39,52,1,Pour_B.wav,5f4cf80c0bce10081b6460e2,001,2021-01-05_15h51.52.480,GuessTheSound,2020.2.10,MacIntel,60,,
,,,,siren,0,40,40,55,1,Siren_D.wav,5f4cf80c0bce10081b6460e2,001,2021-01-05_15h51.52.480,GuessTheSound,2020.2.10,MacIntel,60,,
,,,,a person walking,0,41,41,14,1,Initial/NoRepeat/Footsteps_B.wav,5f4cf80c0bce10081b6460e2,001,2021-01-05_15h51.52.480,GuessTheSound,2020.2.10,MacIntel,60,,
,,,,a person coughing,0,42,42,76,1,Cough_D.wav,5f4cf80c0bce10081b6460e2,001,2021-01-05_15h51.52.480,GuessTheSound,2020.2.10,MacIntel,60,,
,,,,a man whistling ,0,43,43,29,1,Initial/Repeat/ManWhistle.wav,5f4cf80c0bce10081b6460e2,001,2021-01-05_15h51.52.480,GuessTheSound,2020.2.10,MacIntel,60,,
,,,,bathroom drain,0,44,44,40,1,Initial/NoRepeat/Toilet_B.wav,5f4cf80c0bce10081b6460e2,001,2021-01-05_15h51.52.480,GuessTheSound,2020.2.10,MacIntel,60,,
,,,,birds whistle,0,45,45,63,1,Bird_C.wav,5f4cf80c0bce10081b6460e2,001,2021-01-05_15h51.52.480,GuessTheSound,2020.2.10,MacIntel,60,,
,,,,coins in a glass ,0,46,46,3,1,Initial/Repeat/IceDrop.wav,5f4cf80c0bce10081b6460e2,001,2021-01-05_15h51.52.480,GuessTheSound,2020.2.10,MacIntel,60,,
,,,,coffee pouring,0,47,47,50,1,Pour_C.wav,5f4cf80c0bce10081b6460e2,001,2021-01-05_15h51.52.480,GuessTheSound,2020.2.10,MacIntel,60,,
,,,,church bells ,0,48,48,26,1,Initial/Doubled/Chime_A.wav,5f4cf80c0bce10081b6460e2,001,2021-01-05_15h51.52.480,GuessTheSound,2020.2.10,MacIntel,60,,
,,,,tv laughs,0,49,49,59,1,Laugh_B.wav,5f4cf80c0bce10081b6460e2,001,2021-01-05_15h51.52.480,GuessTheSound,2020.2.10,MacIntel,60,,
,,,,guitar,0,50,50,20,1,Initial/Doubled/Guitar_A.wav,5f4cf80c0bce10081b6460e2,001,2021-01-05_15h51.52.480,GuessTheSound,2020.2.10,MacIntel,60,,
,,,,tea pouring,0,51,51,51,1,Pour_D.wav,5f4cf80c0bce10081b6460e2,001,2021-01-05_15h51.52.480,GuessTheSound,2020.2.10,MacIntel,60,,
,,,,wind,0,52,52,42,1,Test/Foils/Wind_B.wav,5f4cf80c0bce10081b6460e2,001,2021-01-05_15h51.52.480,GuessTheSound,2020.2.10,MacIntel,60,,
,,,,some hot liquid pouring,0,53,53,1,1,Initial/Repeat/Pour.wav,5f4cf80c0bce10081b6460e2,001,2021-01-05_15h51.52.480,GuessTheSound,2020.2.10,MacIntel,60,,
,,,,a marker writing ,0,54,54,4,1,Initial/Doubled/Writing_A.wav,5f4cf80c0bce10081b6460e2,001,2021-01-05_15h51.52.480,GuessTheSound,2020.2.10,MacIntel,60,,
,,,,some girls laughing,0,55,55,60,1,Laugh_C.wav,5f4cf80c0bce10081b6460e2,001,2021-01-05_15h51.52.480,GuessTheSound,2020.2.10,MacIntel,60,,
,,,,a phone vibrating,0,56,56,8,1,Test/Foils/Buzz.wav,5f4cf80c0bce10081b6460e2,001,2021-01-05_15h51.52.480,GuessTheSound,2020.2.10,MacIntel,60,,
,,,,a vacuum cleaner,0,57,57,30,1,Initial/Doubled/HairDryer_A.wav,5f4cf80c0bce10081b6460e2,001,2021-01-05_15h51.52.480,GuessTheSound,2020.2.10,MacIntel,60,,
,,,,a synth of a horn,0,58,58,7,1,Test/Foils/Airhorn.wav,5f4cf80c0bce10081b6460e2,001,2021-01-05_15h51.52.480,GuessTheSound,2020.2.10,MacIntel,60,,
,,,,a trumpet,0,59,59,49,1,Initial/Repeat/Trumpet_B.wav,5f4cf80c0bce10081b6460e2,001,2021-01-05_15h51.52.480,GuessTheSound,2020.2.10,MacIntel,60,,
,,,,,,,,,,,5f4cf80c0bce10081b6460e2,001,2021-01-05_15h51.52.480,GuessTheSound,2020.2.10,MacIntel,60,space,21.11511
