WelcomeContinueKey2.keys,WelcomeContinueKey2.rt,VolumeContinueKey.keys,VolumeContinueKey.rt,ResponseBox.text,trials.thisRepN,trials.thisTrialN,trials.thisN,trials.thisIndex,trials.ran,SoundFiles,Type,participant,session,date,expName,psychopyVersion,OS,frameRate,ExitKey.keys,ExitKey.rt
space,9.64527,space,41.51648,horn,0,0,0,60,1,Test/Foils/Airhorn.wav,New,5f54ed45a3b43286df0b0a0b,001,2021-01-01_15h59.37.652,GuessTheSound,2020.2.10,Win32,60,,
,,,,smooth music,0,1,1,9,1,Initial/Doubled/Piano_A.wav,Doubled,5f54ed45a3b43286df0b0a0b,001,2021-01-01_15h59.37.652,GuessTheSound,2020.2.10,Win32,60,,
,,,,something falling,0,2,2,51,1,Initial/Repeat/MetalBang.wav,Repeat,5f54ed45a3b43286df0b0a0b,001,2021-01-01_15h59.37.652,GuessTheSound,2020.2.10,Win32,60,,
,,,,photography sound,0,3,3,80,1,Test/Foils/Camera.wav,Extra,5f54ed45a3b43286df0b0a0b,001,2021-01-01_15h59.37.652,GuessTheSound,2020.2.10,Win32,60,,
,,,,ice cubes falling on a glass,0,4,4,94,1,Initial/Repeat/IceDrop.wav,Extra,5f54ed45a3b43286df0b0a0b,001,2021-01-01_15h59.37.652,GuessTheSound,2020.2.10,Win32,60,,
,,,,fire or police horn,0,5,5,11,1,Initial/Doubled/Siren_A.wav,Doubled,5f54ed45a3b43286df0b0a0b,001,2021-01-01_15h59.37.652,GuessTheSound,2020.2.10,Win32,60,,
,,,,mosquito,0,6,6,32,1,Initial/NoRepeat/Mosquito_B.wav,NoRepeat,5f54ed45a3b43286df0b0a0b,001,2021-01-01_15h59.37.652,GuessTheSound,2020.2.10,Win32,60,,
,,,,sneezing,0,7,7,56,1,Initial/Repeat/Sneeze_B.wav,Repeat,5f54ed45a3b43286df0b0a0b,001,2021-01-01_15h59.37.652,GuessTheSound,2020.2.10,Win32,60,,
,,,,irish pipe,0,8,8,42,1,Initial/Repeat/Bagpipe.wav,Repeat,5f54ed45a3b43286df0b0a0b,001,2021-01-01_15h59.37.652,GuessTheSound,2020.2.10,Win32,60,,
,,,,cellphone vibrating,0,9,9,66,1,Test/Foils/Buzz.wav,New,5f54ed45a3b43286df0b0a0b,001,2021-01-01_15h59.37.652,GuessTheSound,2020.2.10,Win32,60,,
,,,,air coming out of water,0,10,10,0,1,Initial/Doubled/Bubbles_A.wav,Doubled,5f54ed45a3b43286df0b0a0b,001,2021-01-01_15h59.37.652,GuessTheSound,2020.2.10,Win32,60,,
,,,,crickets,0,11,11,5,1,Initial/Doubled/Cricket_A.wav,Doubled,5f54ed45a3b43286df0b0a0b,001,2021-01-01_15h59.37.652,GuessTheSound,2020.2.10,Win32,60,,
,,,,dog barking,0,12,12,7,1,Initial/Doubled/Dog_A.wav,Doubled,5f54ed45a3b43286df0b0a0b,001,2021-01-01_15h59.37.652,GuessTheSound,2020.2.10,Win32,60,,
,,,,rooster,0,13,13,96,1,Initial/NoRepeat/Rooster_B.wav,Extra,5f54ed45a3b43286df0b0a0b,001,2021-01-01_15h59.37.652,GuessTheSound,2020.2.10,Win32,60,,
,,,,christmas music,0,14,14,33,1,Initial/NoRepeat/MusicBox_A.wav,NoRepeat,5f54ed45a3b43286df0b0a0b,001,2021-01-01_15h59.37.652,GuessTheSound,2020.2.10,Win32,60,,
,,,,piano,0,15,15,14,1,Initial/Doubled/Harp_A.wav,Doubled,5f54ed45a3b43286df0b0a0b,001,2021-01-01_15h59.37.652,GuessTheSound,2020.2.10,Win32,60,,
,,,,someone writting on a blackboard,0,16,16,99,1,Initial/Doubled/Writing_A.wav,Extra,5f54ed45a3b43286df0b0a0b,001,2021-01-01_15h59.37.652,GuessTheSound,2020.2.10,Win32,60,,
,,,,steps,0,17,17,29,1,Initial/NoRepeat/Footsteps_B.wav,NoRepeat,5f54ed45a3b43286df0b0a0b,001,2021-01-01_15h59.37.652,GuessTheSound,2020.2.10,Win32,60,,
,,,,something on a small box being shaked,0,18,18,57,1,Initial/Repeat/Stir.wav,Repeat,5f54ed45a3b43286df0b0a0b,001,2021-01-01_15h59.37.652,GuessTheSound,2020.2.10,Win32,60,,
,,,,fire alarm,0,19,19,76,1,Test/Foils/Steam.wav,New,5f54ed45a3b43286df0b0a0b,001,2021-01-01_15h59.37.652,GuessTheSound,2020.2.10,Win32,60,,
,,,,horse,0,20,20,72,1,Test/Foils/Horse.wav,New,5f54ed45a3b43286df0b0a0b,001,2021-01-01_15h59.37.652,GuessTheSound,2020.2.10,Win32,60,,
,,,,old train,0,21,21,84,1,Initial/Doubled/Clock_A.wav,Extra,5f54ed45a3b43286df0b0a0b,001,2021-01-01_15h59.37.652,GuessTheSound,2020.2.10,Win32,60,,
,,,,someone eating something crunchy,0,22,22,83,1,Initial/Doubled/Chomp_A.wav,Extra,5f54ed45a3b43286df0b0a0b,001,2021-01-01_15h59.37.652,GuessTheSound,2020.2.10,Win32,60,,
,,,,cleaning,0,23,23,18,1,Initial/Doubled/Surf_A.wav,Doubled,5f54ed45a3b43286df0b0a0b,001,2021-01-01_15h59.37.652,GuessTheSound,2020.2.10,Win32,60,,
,,,,holding call sound,0,24,24,88,1,Test/Foils/DialTone.wav,Extra,5f54ed45a3b43286df0b0a0b,001,2021-01-01_15h59.37.652,GuessTheSound,2020.2.10,Win32,60,,
,,,,,0,25,25,67,1,Test/Foils/Curtain.wav,New,5f54ed45a3b43286df0b0a0b,001,2021-01-01_15h59.37.652,GuessTheSound,2020.2.10,Win32,60,,
,,,,cucu watch,0,26,26,6,1,Initial/Doubled/Cuckoo_A.wav,Doubled,5f54ed45a3b43286df0b0a0b,001,2021-01-01_15h59.37.652,GuessTheSound,2020.2.10,Win32,60,,
,,,,car starting,0,27,27,81,1,Initial/Doubled/CarStart_A.wav,Extra,5f54ed45a3b43286df0b0a0b,001,2021-01-01_15h59.37.652,GuessTheSound,2020.2.10,Win32,60,,
,,,,rain stick,0,28,28,27,1,Initial/NoRepeat/Faucet_A.wav,NoRepeat,5f54ed45a3b43286df0b0a0b,001,2021-01-01_15h59.37.652,GuessTheSound,2020.2.10,Win32,60,,
,,,,ping pong,0,29,29,53,1,Initial/Repeat/Pingpong.wav,Repeat,5f54ed45a3b43286df0b0a0b,001,2021-01-01_15h59.37.652,GuessTheSound,2020.2.10,Win32,60,,
,,,,crow,0,30,30,87,1,Initial/Repeat/Crow_B.wav,Extra,5f54ed45a3b43286df0b0a0b,001,2021-01-01_15h59.37.652,GuessTheSound,2020.2.10,Win32,60,,
,,,,phone ringing,0,31,31,52,1,Initial/Repeat/Phone_A.wav,Repeat,5f54ed45a3b43286df0b0a0b,001,2021-01-01_15h59.37.652,GuessTheSound,2020.2.10,Win32,60,,
,,,,cello,0,32,32,43,1,Initial/Repeat/Cello.wav,Repeat,5f54ed45a3b43286df0b0a0b,001,2021-01-01_15h59.37.652,GuessTheSound,2020.2.10,Win32,60,,
,,,,something falling,0,33,33,39,1,Initial/NoRepeat/Thunder_A.wav,NoRepeat,5f54ed45a3b43286df0b0a0b,001,2021-01-01_15h59.37.652,GuessTheSound,2020.2.10,Win32,60,,
,,,,turkey,0,34,34,19,1,Initial/Doubled/Turkey_A.wav,Doubled,5f54ed45a3b43286df0b0a0b,001,2021-01-01_15h59.37.652,GuessTheSound,2020.2.10,Win32,60,,
,,,,wind,0,35,35,79,1,Test/Foils/Wind_B.wav,New,5f54ed45a3b43286df0b0a0b,001,2021-01-01_15h59.37.652,GuessTheSound,2020.2.10,Win32,60,,
,,,,,0,36,36,41,1,Initial/Repeat/Bat.wav,Repeat,5f54ed45a3b43286df0b0a0b,001,2021-01-01_15h59.37.652,GuessTheSound,2020.2.10,Win32,60,,
,,,,saxophone,0,37,37,36,1,Initial/NoRepeat/Sax_A.wav,NoRepeat,5f54ed45a3b43286df0b0a0b,001,2021-01-01_15h59.37.652,GuessTheSound,2020.2.10,Win32,60,,
,,,,church bells,0,38,38,2,1,Initial/Doubled/Chime_A.wav,Doubled,5f54ed45a3b43286df0b0a0b,001,2021-01-01_15h59.37.652,GuessTheSound,2020.2.10,Win32,60,,
,,,,metal clincking,0,39,39,17,1,Initial/Doubled/Windchime_A.wav,Doubled,5f54ed45a3b43286df0b0a0b,001,2021-01-01_15h59.37.652,GuessTheSound,2020.2.10,Win32,60,,
,,,,slurping,0,40,40,97,1,Test/Foils/Slurp.wav,Extra,5f54ed45a3b43286df0b0a0b,001,2021-01-01_15h59.37.652,GuessTheSound,2020.2.10,Win32,60,,
,,,,baby,0,41,41,20,1,Initial/NoRepeat/Baby_B.wav,NoRepeat,5f54ed45a3b43286df0b0a0b,001,2021-01-01_15h59.37.652,GuessTheSound,2020.2.10,Win32,60,,
,,,,something overrunning,0,42,42,73,1,Test/Foils/Kettle.wav,New,5f54ed45a3b43286df0b0a0b,001,2021-01-01_15h59.37.652,GuessTheSound,2020.2.10,Win32,60,,
,,,,whistle,0,43,43,50,1,Initial/Repeat/ManWhistle.wav,Repeat,5f54ed45a3b43286df0b0a0b,001,2021-01-01_15h59.37.652,GuessTheSound,2020.2.10,Win32,60,,
,,,,animal,0,44,44,90,1,Initial/Doubled/Geese_A.wav,Extra,5f54ed45a3b43286df0b0a0b,001,2021-01-01_15h59.37.652,GuessTheSound,2020.2.10,Win32,60,,
,,,,harmonica,0,45,45,70,1,Test/Foils/Harmonica.wav,New,5f54ed45a3b43286df0b0a0b,001,2021-01-01_15h59.37.652,GuessTheSound,2020.2.10,Win32,60,,
,,,,guitar,0,46,46,91,1,Initial/Doubled/Guitar_A.wav,Extra,5f54ed45a3b43286df0b0a0b,001,2021-01-01_15h59.37.652,GuessTheSound,2020.2.10,Win32,60,,
,,,,birthday/party whistle,0,47,47,74,1,Test/Foils/PartyHorn.wav,New,5f54ed45a3b43286df0b0a0b,001,2021-01-01_15h59.37.652,GuessTheSound,2020.2.10,Win32,60,,
,,,,printer/scanner,0,48,48,54,1,Initial/Repeat/Printer.wav,Repeat,5f54ed45a3b43286df0b0a0b,001,2021-01-01_15h59.37.652,GuessTheSound,2020.2.10,Win32,60,,
,,,,small bells,0,49,49,37,1,Initial/NoRepeat/Sleighbells_B.wav,NoRepeat,5f54ed45a3b43286df0b0a0b,001,2021-01-01_15h59.37.652,GuessTheSound,2020.2.10,Win32,60,,
,,,,trumpet,0,50,50,58,1,Initial/Repeat/Trumpet_B.wav,Repeat,5f54ed45a3b43286df0b0a0b,001,2021-01-01_15h59.37.652,GuessTheSound,2020.2.10,Win32,60,,
,,,,rubber toy,0,51,51,34,1,Initial/NoRepeat/Puff_A.wav,NoRepeat,5f54ed45a3b43286df0b0a0b,001,2021-01-01_15h59.37.652,GuessTheSound,2020.2.10,Win32,60,,
,,,,laughing,0,52,52,15,1,Initial/Doubled/Laugh_A.wav,Doubled,5f54ed45a3b43286df0b0a0b,001,2021-01-01_15h59.37.652,GuessTheSound,2020.2.10,Win32,60,,
,,,,unwrapping,0,53,53,95,1,Test/Foils/PaperRip.wav,Extra,5f54ed45a3b43286df0b0a0b,001,2021-01-01_15h59.37.652,GuessTheSound,2020.2.10,Win32,60,,
,,,,drinking,0,54,54,92,1,Test/Foils/Gulp.wav,Extra,5f54ed45a3b43286df0b0a0b,001,2021-01-01_15h59.37.652,GuessTheSound,2020.2.10,Win32,60,,
,,,,glass ,0,55,55,47,1,Initial/Repeat/Cup.wav,Repeat,5f54ed45a3b43286df0b0a0b,001,2021-01-01_15h59.37.652,GuessTheSound,2020.2.10,Win32,60,,
,,,,clasp,0,56,56,78,1,Test/Foils/Cards.wav,New,5f54ed45a3b43286df0b0a0b,001,2021-01-01_15h59.37.652,GuessTheSound,2020.2.10,Win32,60,,
,,,,coins,0,57,57,4,1,Initial/Doubled/Coin_A.wav,Doubled,5f54ed45a3b43286df0b0a0b,001,2021-01-01_15h59.37.652,GuessTheSound,2020.2.10,Win32,60,,
,,,,helicopter,0,58,58,93,1,Initial/NoRepeat/Helicopter_A.wav,Extra,5f54ed45a3b43286df0b0a0b,001,2021-01-01_15h59.37.652,GuessTheSound,2020.2.10,Win32,60,,
,,,,drinking from a straw,0,59,59,49,1,Initial/Repeat/Pour.wav,Repeat,5f54ed45a3b43286df0b0a0b,001,2021-01-01_15h59.37.652,GuessTheSound,2020.2.10,Win32,60,,
,,,,,,,,,,,,5f54ed45a3b43286df0b0a0b,001,2021-01-01_15h59.37.652,GuessTheSound,2020.2.10,Win32,60,space,8.659875
