VolumeContinueKey.keys,VolumeContinueKey.rt,HeadphoneContinueKey.keys,HeadphoneContinueKey.rt,CheckResp.keys,CheckResp.corr,CheckResp.rt,trials_2.thisRepN,trials_2.thisTrialN,trials_2.thisN,trials_2.thisIndex,trials_2.ran,File,Correct,participant,date,expName,psychopyVersion,OS,frameRate,key_resp_2.keys,key_resp_2.rt,key_resp_3.keys,key_resp_3.rt,WelcomeContinueKey2.keys,WelcomeContinueKey2.rt,Practice_resp.keys,Practice_resp.corr,Practice_resp.rt,PracticeLoop.thisRepN,PracticeLoop.thisTrialN,PracticeLoop.thisN,PracticeLoop.thisIndex,PracticeLoop.ran,SoundFile,SoundCorrect,Correct2,SoundType,Trial,StartTast.keys,StartTast.rt,key_resp.keys,key_resp.corr,key_resp.rt,trials.thisRepN,trials.thisTrialN,trials.thisN,trials.thisIndex,trials.ran
space,4.59649,space,6.18919,2,1,2.240015,0,0,0,3,1,Headphone/t2_2.wav,2,5f5b7da324ea690ab36f58a5,2021-03-21_16h25.01.419,GuessTheSound,2020.2.10,Win32,60,,,,,,,,,,,,,,,,,,,,,,,,,,,,,
,,,,1,1,0.24355,0,1,1,0,1,Headphone/t1_1.wav,1,5f5b7da324ea690ab36f58a5,2021-03-21_16h25.01.419,GuessTheSound,2020.2.10,Win32,60,,,,,,,,,,,,,,,,,,,,,,,,,,,,,
,,,,3,1,0.26788,0,2,2,5,1,Headphone/t3_2.wav,3,5f5b7da324ea690ab36f58a5,2021-03-21_16h25.01.419,GuessTheSound,2020.2.10,Win32,60,,,,,,,,,,,,,,,,,,,,,,,,,,,,,
,,,,1,1,0.267205,0,3,3,1,1,Headphone/t1_2.wav,1,5f5b7da324ea690ab36f58a5,2021-03-21_16h25.01.419,GuessTheSound,2020.2.10,Win32,60,,,,,,,,,,,,,,,,,,,,,,,,,,,,,
,,,,2,1,0.18531,0,4,4,2,1,Headphone/t2_1.wav,2,5f5b7da324ea690ab36f58a5,2021-03-21_16h25.01.419,GuessTheSound,2020.2.10,Win32,60,,,,,,,,,,,,,,,,,,,,,,,,,,,,,
,,,,3,1,0.25107,0,5,5,4,1,Headphone/t3_1.wav,3,5f5b7da324ea690ab36f58a5,2021-03-21_16h25.01.419,GuessTheSound,2020.2.10,Win32,60,,,,,,,,,,,,,,,,,,,,,,,,,,,,,
,,,,,,,,,,,,,,5f5b7da324ea690ab36f58a5,2021-03-21_16h25.01.419,GuessTheSound,2020.2.10,Win32,60,space,9.48274,space,5.536635,space,3.625785,2,1,5.353695,0,0,0,0,1,Practice/Seagull_A.wav,2,3,NEW,Practice,,,,,,,,,,
,,,,,,,,,,,,,,5f5b7da324ea690ab36f58a5,2021-03-21_16h25.01.419,GuessTheSound,2020.2.10,Win32,60,,,,,,,2,1,1.73999,0,1,1,1,1,Practice/Skid_B.wav,2,3,NEW,Practice,,,,,,,,,,
,,,,,,,,,,,,,,5f5b7da324ea690ab36f58a5,2021-03-21_16h25.01.419,GuessTheSound,2020.2.10,Win32,60,,,,,,,1,1,2.03343,0,2,2,2,1,Practice/Seagull_A.wav,1,1,OLD,Practice,,,,,,,,,,
,,,,,,,,,,,,,,5f5b7da324ea690ab36f58a5,2021-03-21_16h25.01.419,GuessTheSound,2020.2.10,Win32,60,,,,,,,2,1,0.65235,0,3,3,3,1,Practice/Gargle_A.wav,2,3,NEW,Practice,,,,,,,,,,
,,,,,,,,,,,,,,5f5b7da324ea690ab36f58a5,2021-03-21_16h25.01.419,GuessTheSound,2020.2.10,Win32,60,,,,,,,2,1,4.215025,0,4,4,4,1,Practice/Gargle_B.wav,2,2,SIMILAR,Practice,,,,,,,,,,
,,,,,,,,,,,,,,5f5b7da324ea690ab36f58a5,2021-03-21_16h25.01.419,GuessTheSound,2020.2.10,Win32,60,,,,,,,,,,,,,,,SoundMST/Elephant_C.wav,2,3,NEW,A,space,5.379545,2,1,6.357865,0,0,0,0,1
,,,,,,,,,,,,,,5f5b7da324ea690ab36f58a5,2021-03-21_16h25.01.419,GuessTheSound,2020.2.10,Win32,60,,,,,,,,,,,,,,,SoundMST/Thunder_A.wav,2,3,NEW,A,,,2,1,0.40602,0,1,1,1,1
,,,,,,,,,,,,,,5f5b7da324ea690ab36f58a5,2021-03-21_16h25.01.419,GuessTheSound,2020.2.10,Win32,60,,,,,,,,,,,,,,,SoundMST/Chime_B.wav,2,3,NEW,A,,,2,1,0.27992,0,2,2,2,1
,,,,,,,,,,,,,,5f5b7da324ea690ab36f58a5,2021-03-21_16h25.01.419,GuessTheSound,2020.2.10,Win32,60,,,,,,,,,,,,,,,SoundMST/Toilet_B.wav,2,3,NEW,A,,,2,1,0.34913,0,3,3,3,1
,,,,,,,,,,,,,,5f5b7da324ea690ab36f58a5,2021-03-21_16h25.01.419,GuessTheSound,2020.2.10,Win32,60,,,,,,,,,,,,,,,SoundMST/Typing.wav,2,3,NEW,A,,,2,1,0.336755,0,4,4,4,1
,,,,,,,,,,,,,,5f5b7da324ea690ab36f58a5,2021-03-21_16h25.01.419,GuessTheSound,2020.2.10,Win32,60,,,,,,,,,,,,,,,SoundMST/Pour_B.wav,2,3,NEW,A,,,2,1,0.32014,0,5,5,5,1
,,,,,,,,,,,,,,5f5b7da324ea690ab36f58a5,2021-03-21_16h25.01.419,GuessTheSound,2020.2.10,Win32,60,,,,,,,,,,,,,,,SoundMST/Sleighbells_B.wav,2,3,NEW,A,,,2,1,0.302445,0,6,6,6,1
,,,,,,,,,,,,,,5f5b7da324ea690ab36f58a5,2021-03-21_16h25.01.419,GuessTheSound,2020.2.10,Win32,60,,,,,,,,,,,,,,,SoundMST/Buzz.wav,2,3,NEW,A,,,2,1,0.265655,0,7,7,7,1
,,,,,,,,,,,,,,5f5b7da324ea690ab36f58a5,2021-03-21_16h25.01.419,GuessTheSound,2020.2.10,Win32,60,,,,,,,,,,,,,,,SoundMST/Baby_F.wav,2,3,NEW,A,,,2,1,0.280915,0,8,8,8,1
,,,,,,,,,,,,,,5f5b7da324ea690ab36f58a5,2021-03-21_16h25.01.419,GuessTheSound,2020.2.10,Win32,60,,,,,,,,,,,,,,,SoundMST/Thunder_A.wav,1,1,OLD,A,,,1,1,0.289605,0,9,9,9,1
,,,,,,,,,,,,,,5f5b7da324ea690ab36f58a5,2021-03-21_16h25.01.419,GuessTheSound,2020.2.10,Win32,60,,,,,,,,,,,,,,,SoundMST/Mosquito_B.wav,2,3,NEW,A,,,2,1,0.26888,0,10,10,10,1
,,,,,,,,,,,,,,5f5b7da324ea690ab36f58a5,2021-03-21_16h25.01.419,GuessTheSound,2020.2.10,Win32,60,,,,,,,,,,,,,,,SoundMST/DialTone.wav,2,3,NEW,A,,,2,1,0.289555,0,11,11,11,1
,,,,,,,,,,,,,,5f5b7da324ea690ab36f58a5,2021-03-21_16h25.01.419,GuessTheSound,2020.2.10,Win32,60,,,,,,,,,,,,,,,SoundMST/Elephant_A.wav,2,2,SIMILAR,A,,,2,1,0.3197,0,12,12,12,1
,,,,,,,,,,,,,,5f5b7da324ea690ab36f58a5,2021-03-21_16h25.01.419,GuessTheSound,2020.2.10,Win32,60,,,,,,,,,,,,,,,SoundMST/Writing_A.wav,2,3,NEW,A,,,2,1,0.275055,0,13,13,13,1
,,,,,,,,,,,,,,5f5b7da324ea690ab36f58a5,2021-03-21_16h25.01.419,GuessTheSound,2020.2.10,Win32,60,,,,,,,,,,,,,,,SoundMST/Faucet_A.wav,2,3,NEW,A,,,1,0,0.58493,0,14,14,14,1
,,,,,,,,,,,,,,5f5b7da324ea690ab36f58a5,2021-03-21_16h25.01.419,GuessTheSound,2020.2.10,Win32,60,,,,,,,,,,,,,,,SoundMST/Typing.wav,1,1,OLD,A,,,1,1,0.28368,0,15,15,15,1
,,,,,,,,,,,,,,5f5b7da324ea690ab36f58a5,2021-03-21_16h25.01.419,GuessTheSound,2020.2.10,Win32,60,,,,,,,,,,,,,,,SoundMST/Sleighbells_B.wav,1,1,OLD,A,,,1,1,0.218155,0,16,16,16,1
,,,,,,,,,,,,,,5f5b7da324ea690ab36f58a5,2021-03-21_16h25.01.419,GuessTheSound,2020.2.10,Win32,60,,,,,,,,,,,,,,,SoundMST/Wind_B.wav,2,3,NEW,A,,,2,1,0.511295,0,17,17,17,1
,,,,,,,,,,,,,,5f5b7da324ea690ab36f58a5,2021-03-21_16h25.01.419,GuessTheSound,2020.2.10,Win32,60,,,,,,,,,,,,,,,SoundMST/Toilet_B.wav,1,1,OLD,A,,,1,1,0.28377,0,18,18,18,1
,,,,,,,,,,,,,,5f5b7da324ea690ab36f58a5,2021-03-21_16h25.01.419,GuessTheSound,2020.2.10,Win32,60,,,,,,,,,,,,,,,SoundMST/Pour_C.wav,2,2,SIMILAR,A,,,1,0,0.29882,0,19,19,19,1
,,,,,,,,,,,,,,5f5b7da324ea690ab36f58a5,2021-03-21_16h25.01.419,GuessTheSound,2020.2.10,Win32,60,,,,,,,,,,,,,,,SoundMST/Chime_A.wav,2,2,SIMILAR,A,,,2,1,0.01051,0,20,20,20,1
,,,,,,,,,,,,,,5f5b7da324ea690ab36f58a5,2021-03-21_16h25.01.419,GuessTheSound,2020.2.10,Win32,60,,,,,,,,,,,,,,,SoundMST/Buzz.wav,1,1,OLD,A,,,1,1,0.242135,0,21,21,21,1
,,,,,,,,,,,,,,5f5b7da324ea690ab36f58a5,2021-03-21_16h25.01.419,GuessTheSound,2020.2.10,Win32,60,,,,,,,,,,,,,,,SoundMST/Writing_C.wav,2,2,SIMILAR,A,,,2,1,0.31143,0,22,22,22,1
,,,,,,,,,,,,,,5f5b7da324ea690ab36f58a5,2021-03-21_16h25.01.419,GuessTheSound,2020.2.10,Win32,60,,,,,,,,,,,,,,,SoundMST/Mosquito_B.wav,1,1,OLD,A,,,1,1,0.52975,0,23,23,23,1
,,,,,,,,,,,,,,5f5b7da324ea690ab36f58a5,2021-03-21_16h25.01.419,GuessTheSound,2020.2.10,Win32,60,,,,,,,,,,,,,,,SoundMST/Cough_C.wav,2,3,NEW,A,,,2,1,0.485985,0,24,24,24,1
,,,,,,,,,,,,,,5f5b7da324ea690ab36f58a5,2021-03-21_16h25.01.419,GuessTheSound,2020.2.10,Win32,60,,,,,,,,,,,,,,,SoundMST/DialTone.wav,1,1,OLD,A,,,1,1,0.30558,0,25,25,25,1
,,,,,,,,,,,,,,5f5b7da324ea690ab36f58a5,2021-03-21_16h25.01.419,GuessTheSound,2020.2.10,Win32,60,,,,,,,,,,,,,,,SoundMST/Puff_A.wav,2,3,NEW,A,,,2,1,0.28571,0,26,26,26,1
,,,,,,,,,,,,,,5f5b7da324ea690ab36f58a5,2021-03-21_16h25.01.419,GuessTheSound,2020.2.10,Win32,60,,,,,,,,,,,,,,,SoundMST/Heartbeat.wav,2,3,NEW,A,,,2,1,0.254145,0,27,27,27,1
,,,,,,,,,,,,,,5f5b7da324ea690ab36f58a5,2021-03-21_16h25.01.419,GuessTheSound,2020.2.10,Win32,60,,,,,,,,,,,,,,,SoundMST/IceDrop.wav,2,3,NEW,A,,,2,1,0.281855,0,28,28,28,1
,,,,,,,,,,,,,,5f5b7da324ea690ab36f58a5,2021-03-21_16h25.01.419,GuessTheSound,2020.2.10,Win32,60,,,,,,,,,,,,,,,SoundMST/Bird_C.wav,2,3,NEW,A,,,2,1,0.308335,0,29,29,29,1
,,,,,,,,,,,,,,5f5b7da324ea690ab36f58a5,2021-03-21_16h25.01.419,GuessTheSound,2020.2.10,Win32,60,,,,,,,,,,,,,,,SoundMST/Baby_E.wav,2,2,SIMILAR,A,,,2,1,0.25066,0,30,30,30,1
,,,,,,,,,,,,,,5f5b7da324ea690ab36f58a5,2021-03-21_16h25.01.419,GuessTheSound,2020.2.10,Win32,60,,,,,,,,,,,,,,,SoundMST/Faucet_C.wav,2,2,SIMILAR,A,,,1,0,0.273095,0,31,31,31,1
,,,,,,,,,,,,,,5f5b7da324ea690ab36f58a5,2021-03-21_16h25.01.419,GuessTheSound,2020.2.10,Win32,60,,,,,,,,,,,,,,,SoundMST/Duck_A.wav,2,3,NEW,A,,,2,1,0.26698,0,32,32,32,1
,,,,,,,,,,,,,,5f5b7da324ea690ab36f58a5,2021-03-21_16h25.01.419,GuessTheSound,2020.2.10,Win32,60,,,,,,,,,,,,,,,SoundMST/Laugh_A.wav,2,3,NEW,A,,,2,1,0.28378,0,33,33,33,1
,,,,,,,,,,,,,,5f5b7da324ea690ab36f58a5,2021-03-21_16h25.01.419,GuessTheSound,2020.2.10,Win32,60,,,,,,,,,,,,,,,SoundMST/Wind_B.wav,1,1,OLD,A,,,1,1,0.263085,0,34,34,34,1
,,,,,,,,,,,,,,5f5b7da324ea690ab36f58a5,2021-03-21_16h25.01.419,GuessTheSound,2020.2.10,Win32,60,,,,,,,,,,,,,,,SoundMST/Chicken_A.wav,2,3,NEW,A,,,2,1,0.38992,0,35,35,35,1
,,,,,,,,,,,,,,5f5b7da324ea690ab36f58a5,2021-03-21_16h25.01.419,GuessTheSound,2020.2.10,Win32,60,,,,,,,,,,,,,,,SoundMST/Guitar_B.wav,2,3,NEW,A,,,2,1,0.24543,0,36,36,36,1
,,,,,,,,,,,,,,5f5b7da324ea690ab36f58a5,2021-03-21_16h25.01.419,GuessTheSound,2020.2.10,Win32,60,,,,,,,,,,,,,,,SoundMST/Cello.wav,2,3,NEW,A,,,2,1,0.387745,0,37,37,37,1
,,,,,,,,,,,,,,5f5b7da324ea690ab36f58a5,2021-03-21_16h25.01.419,GuessTheSound,2020.2.10,Win32,60,,,,,,,,,,,,,,,SoundMST/Heartbeat.wav,1,1,OLD,A,,,1,1,0.2878,0,38,38,38,1
,,,,,,,,,,,,,,5f5b7da324ea690ab36f58a5,2021-03-21_16h25.01.419,GuessTheSound,2020.2.10,Win32,60,,,,,,,,,,,,,,,SoundMST/Airplane_B.wav,2,3,NEW,A,,,2,1,0.26379,0,39,39,39,1
