VolumeContinueKey.keys,VolumeContinueKey.rt,HeadphoneContinueKey.keys,HeadphoneContinueKey.rt,CheckResp.keys,CheckResp.corr,CheckResp.rt,trials_2.thisRepN,trials_2.thisTrialN,trials_2.thisN,trials_2.thisIndex,trials_2.ran,File,Correct,participant,date,expName,psychopyVersion,OS,frameRate,key_resp_2.keys,key_resp_2.rt,key_resp_3.keys,key_resp_3.rt,WelcomeContinueKey2.keys,WelcomeContinueKey2.rt,Practice_resp.keys,Practice_resp.corr,Practice_resp.rt,PracticeLoop.thisRepN,PracticeLoop.thisTrialN,PracticeLoop.thisN,PracticeLoop.thisIndex,PracticeLoop.ran,SoundFile,SoundCorrect,Correct2,SoundType,Trial,StartTast.keys,StartTast.rt,key_resp.keys,key_resp.corr,key_resp.rt,trials.thisRepN,trials.thisTrialN,trials.thisN,trials.thisIndex,trials.ran,ExitKey.keys,ExitKey.rt
space,1.071455,space,1.344965,3,1,0.333455,0,0,0,5,1,Headphone/t3_2.wav,3,5f740f60b8a1e41acc020269,2021-03-19_20h38.39.092,GuessTheSound,2020.2.10,Win32,60,,,,,,,,,,,,,,,,,,,,,,,,,,,,,,,
,,,,2,1,0.26753,0,1,1,2,1,Headphone/t2_1.wav,2,5f740f60b8a1e41acc020269,2021-03-19_20h38.39.092,GuessTheSound,2020.2.10,Win32,60,,,,,,,,,,,,,,,,,,,,,,,,,,,,,,,
,,,,3,1,0.16636,0,2,2,4,1,Headphone/t3_1.wav,3,5f740f60b8a1e41acc020269,2021-03-19_20h38.39.092,GuessTheSound,2020.2.10,Win32,60,,,,,,,,,,,,,,,,,,,,,,,,,,,,,,,
,,,,1,1,0.085625,0,3,3,0,1,Headphone/t1_1.wav,1,5f740f60b8a1e41acc020269,2021-03-19_20h38.39.092,GuessTheSound,2020.2.10,Win32,60,,,,,,,,,,,,,,,,,,,,,,,,,,,,,,,
,,,,2,1,0.300815,0,4,4,3,1,Headphone/t2_2.wav,2,5f740f60b8a1e41acc020269,2021-03-19_20h38.39.092,GuessTheSound,2020.2.10,Win32,60,,,,,,,,,,,,,,,,,,,,,,,,,,,,,,,
,,,,1,1,0.382935,0,5,5,1,1,Headphone/t1_2.wav,1,5f740f60b8a1e41acc020269,2021-03-19_20h38.39.092,GuessTheSound,2020.2.10,Win32,60,,,,,,,,,,,,,,,,,,,,,,,,,,,,,,,
,,,,,,,,,,,,,,5f740f60b8a1e41acc020269,2021-03-19_20h38.39.092,GuessTheSound,2020.2.10,Win32,60,space,1.233935,space,1.715475,space,1.722025,2,1,1.16858,0,0,0,0,1,Practice/Seagull_A.wav,2,3,NEW,Practice,,,,,,,,,,,,
,,,,,,,,,,,,,,5f740f60b8a1e41acc020269,2021-03-19_20h38.39.092,GuessTheSound,2020.2.10,Win32,60,,,,,,,2,1,1.642545,0,1,1,1,1,Practice/Skid_B.wav,2,3,NEW,Practice,,,,,,,,,,,,
,,,,,,,,,,,,,,5f740f60b8a1e41acc020269,2021-03-19_20h38.39.092,GuessTheSound,2020.2.10,Win32,60,,,,,,,1,1,0.496825,0,2,2,2,1,Practice/Seagull_A.wav,1,1,OLD,Practice,,,,,,,,,,,,
,,,,,,,,,,,,,,5f740f60b8a1e41acc020269,2021-03-19_20h38.39.092,GuessTheSound,2020.2.10,Win32,60,,,,,,,2,1,0.45735,0,3,3,3,1,Practice/Gargle_A.wav,2,3,NEW,Practice,,,,,,,,,,,,
,,,,,,,,,,,,,,5f740f60b8a1e41acc020269,2021-03-19_20h38.39.092,GuessTheSound,2020.2.10,Win32,60,,,,,,,1,0,0.371765,0,4,4,4,1,Practice/Gargle_B.wav,2,2,SIMILAR,Practice,,,,,,,,,,,,
,,,,,,,,,,,,,,5f740f60b8a1e41acc020269,2021-03-19_20h38.39.092,GuessTheSound,2020.2.10,Win32,60,,,,,,,,,,,,,,,SoundMST/CarStart_E.wav,2,3,NEW,C,space,8.646005,2,1,2.447855,0,0,0,0,1,,
,,,,,,,,,,,,,,5f740f60b8a1e41acc020269,2021-03-19_20h38.39.092,GuessTheSound,2020.2.10,Win32,60,,,,,,,,,,,,,,,SoundMST/Bird_E.wav,2,3,NEW,C,,,2,1,0.48411,0,1,1,1,1,,
,,,,,,,,,,,,,,5f740f60b8a1e41acc020269,2021-03-19_20h38.39.092,GuessTheSound,2020.2.10,Win32,60,,,,,,,,,,,,,,,SoundMST/Bubbles_A.wav,2,3,NEW,C,,,2,1,0.600395,0,2,2,2,1,,
,,,,,,,,,,,,,,5f740f60b8a1e41acc020269,2021-03-19_20h38.39.092,GuessTheSound,2020.2.10,Win32,60,,,,,,,,,,,,,,,SoundMST/Horse.wav,2,3,NEW,C,,,2,1,0.460245,0,3,3,3,1,,
,,,,,,,,,,,,,,5f740f60b8a1e41acc020269,2021-03-19_20h38.39.092,GuessTheSound,2020.2.10,Win32,60,,,,,,,,,,,,,,,SoundMST/IceDrop.wav,2,3,NEW,C,,,2,1,0.351065,0,4,4,4,1,,
,,,,,,,,,,,,,,5f740f60b8a1e41acc020269,2021-03-19_20h38.39.092,GuessTheSound,2020.2.10,Win32,60,,,,,,,,,,,,,,,SoundMST/Sleighbells_B.wav,2,3,NEW,C,,,2,1,0.339765,0,5,5,5,1,,
,,,,,,,,,,,,,,5f740f60b8a1e41acc020269,2021-03-19_20h38.39.092,GuessTheSound,2020.2.10,Win32,60,,,,,,,,,,,,,,,SoundMST/Growl_G.wav,2,3,NEW,C,,,2,1,0.32674,0,6,6,6,1,,
,,,,,,,,,,,,,,5f740f60b8a1e41acc020269,2021-03-19_20h38.39.092,GuessTheSound,2020.2.10,Win32,60,,,,,,,,,,,,,,,SoundMST/Chicken_A.wav,2,3,NEW,C,,,2,1,0.30791,0,7,7,7,1,,
,,,,,,,,,,,,,,5f740f60b8a1e41acc020269,2021-03-19_20h38.39.092,GuessTheSound,2020.2.10,Win32,60,,,,,,,,,,,,,,,SoundMST/Slurp.wav,2,3,NEW,C,,,2,1,0.37209,0,8,8,8,1,,
,,,,,,,,,,,,,,5f740f60b8a1e41acc020269,2021-03-19_20h38.39.092,GuessTheSound,2020.2.10,Win32,60,,,,,,,,,,,,,,,SoundMST/CarStart_A.wav,2,2,SIMILAR,C,,,1,0,0.550175,0,9,9,9,1,,
,,,,,,,,,,,,,,5f740f60b8a1e41acc020269,2021-03-19_20h38.39.092,GuessTheSound,2020.2.10,Win32,60,,,,,,,,,,,,,,,SoundMST/Printer.wav,2,3,NEW,C,,,2,1,0.31699,0,10,10,10,1,,
,,,,,,,,,,,,,,5f740f60b8a1e41acc020269,2021-03-19_20h38.39.092,GuessTheSound,2020.2.10,Win32,60,,,,,,,,,,,,,,,SoundMST/Bowlingpins.wav,2,3,NEW,C,,,2,1,0.3245,0,11,11,11,1,,
,,,,,,,,,,,,,,5f740f60b8a1e41acc020269,2021-03-19_20h38.39.092,GuessTheSound,2020.2.10,Win32,60,,,,,,,,,,,,,,,SoundMST/Fireworks.wav,2,3,NEW,C,,,2,1,0.93973,0,12,12,12,1,,
,,,,,,,,,,,,,,5f740f60b8a1e41acc020269,2021-03-19_20h38.39.092,GuessTheSound,2020.2.10,Win32,60,,,,,,,,,,,,,,,SoundMST/Howl.wav,2,3,NEW,C,,,2,1,0.422925,0,13,13,13,1,,
,,,,,,,,,,,,,,5f740f60b8a1e41acc020269,2021-03-19_20h38.39.092,GuessTheSound,2020.2.10,Win32,60,,,,,,,,,,,,,,,SoundMST/Goat_B.wav,2,3,NEW,C,,,2,1,0.99424,0,14,14,14,1,,
,,,,,,,,,,,,,,5f740f60b8a1e41acc020269,2021-03-19_20h38.39.092,GuessTheSound,2020.2.10,Win32,60,,,,,,,,,,,,,,,SoundMST/Horse.wav,1,1,OLD,C,,,1,1,0.518185,0,15,15,15,1,,
,,,,,,,,,,,,,,5f740f60b8a1e41acc020269,2021-03-19_20h38.39.092,GuessTheSound,2020.2.10,Win32,60,,,,,,,,,,,,,,,SoundMST/Laugh_A.wav,2,3,NEW,C,,,2,1,0.425375,0,16,16,16,1,,
,,,,,,,,,,,,,,5f740f60b8a1e41acc020269,2021-03-19_20h38.39.092,GuessTheSound,2020.2.10,Win32,60,,,,,,,,,,,,,,,SoundMST/Bubbles_B.wav,2,2,SIMILAR,C,,,1,0,0.41081,0,17,17,17,1,,
,,,,,,,,,,,,,,5f740f60b8a1e41acc020269,2021-03-19_20h38.39.092,GuessTheSound,2020.2.10,Win32,60,,,,,,,,,,,,,,,SoundMST/Footsteps_C.wav,2,3,NEW,C,,,2,1,0.43567,0,18,18,18,1,,
,,,,,,,,,,,,,,5f740f60b8a1e41acc020269,2021-03-19_20h38.39.092,GuessTheSound,2020.2.10,Win32,60,,,,,,,,,,,,,,,SoundMST/Duck_C.wav,2,3,NEW,C,,,2,1,0.39987,0,19,19,19,1,,
,,,,,,,,,,,,,,5f740f60b8a1e41acc020269,2021-03-19_20h38.39.092,GuessTheSound,2020.2.10,Win32,60,,,,,,,,,,,,,,,SoundMST/Cow.wav,2,3,NEW,C,,,2,1,0.53994,0,20,20,20,1,,
,,,,,,,,,,,,,,5f740f60b8a1e41acc020269,2021-03-19_20h38.39.092,GuessTheSound,2020.2.10,Win32,60,,,,,,,,,,,,,,,SoundMST/Airhorn.wav,2,3,NEW,C,,,2,1,0.357835,0,21,21,21,1,,
,,,,,,,,,,,,,,5f740f60b8a1e41acc020269,2021-03-19_20h38.39.092,GuessTheSound,2020.2.10,Win32,60,,,,,,,,,,,,,,,SoundMST/Printer.wav,1,1,OLD,C,,,1,1,0.42727,0,22,22,22,1,,
,,,,,,,,,,,,,,5f740f60b8a1e41acc020269,2021-03-19_20h38.39.092,GuessTheSound,2020.2.10,Win32,60,,,,,,,,,,,,,,,SoundMST/Sleighbells_B.wav,1,1,OLD,C,,,1,1,0.35561,0,23,23,23,1,,
,,,,,,,,,,,,,,5f740f60b8a1e41acc020269,2021-03-19_20h38.39.092,GuessTheSound,2020.2.10,Win32,60,,,,,,,,,,,,,,,SoundMST/Camera.wav,2,3,NEW,C,,,2,1,0.33824,0,24,24,24,1,,
,,,,,,,,,,,,,,5f740f60b8a1e41acc020269,2021-03-19_20h38.39.092,GuessTheSound,2020.2.10,Win32,60,,,,,,,,,,,,,,,SoundMST/Growl_H.wav,2,2,SIMILAR,C,,,1,0,0.434725,0,25,25,25,1,,
,,,,,,,,,,,,,,5f740f60b8a1e41acc020269,2021-03-19_20h38.39.092,GuessTheSound,2020.2.10,Win32,60,,,,,,,,,,,,,,,SoundMST/Whistle_B.wav,2,3,NEW,C,,,2,1,0.45188,0,26,26,26,1,,
,,,,,,,,,,,,,,5f740f60b8a1e41acc020269,2021-03-19_20h38.39.092,GuessTheSound,2020.2.10,Win32,60,,,,,,,,,,,,,,,SoundMST/Piano_D.wav,2,3,NEW,C,,,2,1,0.349905,0,27,27,27,1,,
,,,,,,,,,,,,,,5f740f60b8a1e41acc020269,2021-03-19_20h38.39.092,GuessTheSound,2020.2.10,Win32,60,,,,,,,,,,,,,,,SoundMST/Coin_D.wav,2,3,NEW,C,,,2,1,0.402635,0,28,28,28,1,,
,,,,,,,,,,,,,,5f740f60b8a1e41acc020269,2021-03-19_20h38.39.092,GuessTheSound,2020.2.10,Win32,60,,,,,,,,,,,,,,,SoundMST/Bird_A.wav,2,2,SIMILAR,C,,,2,1,0.53411,0,29,29,29,1,,
,,,,,,,,,,,,,,5f740f60b8a1e41acc020269,2021-03-19_20h38.39.092,GuessTheSound,2020.2.10,Win32,60,,,,,,,,,,,,,,,SoundMST/PaperRip.wav,2,3,NEW,C,,,2,1,0.37666,0,30,30,30,1,,
,,,,,,,,,,,,,,5f740f60b8a1e41acc020269,2021-03-19_20h38.39.092,GuessTheSound,2020.2.10,Win32,60,,,,,,,,,,,,,,,SoundMST/Slurp.wav,1,1,OLD,C,,,1,1,0.42605,0,31,31,31,1,,
,,,,,,,,,,,,,,5f740f60b8a1e41acc020269,2021-03-19_20h38.39.092,GuessTheSound,2020.2.10,Win32,60,,,,,,,,,,,,,,,SoundMST/Howl.wav,1,1,OLD,C,,,1,1,0.30155,0,32,32,32,1,,
,,,,,,,,,,,,,,5f740f60b8a1e41acc020269,2021-03-19_20h38.39.092,GuessTheSound,2020.2.10,Win32,60,,,,,,,,,,,,,,,SoundMST/IceDrop.wav,1,1,OLD,C,,,1,1,0.40554,0,33,33,33,1,,
,,,,,,,,,,,,,,5f740f60b8a1e41acc020269,2021-03-19_20h38.39.092,GuessTheSound,2020.2.10,Win32,60,,,,,,,,,,,,,,,SoundMST/Pour_B.wav,2,3,NEW,C,,,2,1,0.61793,0,34,34,34,1,,
,,,,,,,,,,,,,,5f740f60b8a1e41acc020269,2021-03-19_20h38.39.092,GuessTheSound,2020.2.10,Win32,60,,,,,,,,,,,,,,,SoundMST/Fireworks.wav,1,1,OLD,C,,,1,1,0.3908,0,35,35,35,1,,
,,,,,,,,,,,,,,5f740f60b8a1e41acc020269,2021-03-19_20h38.39.092,GuessTheSound,2020.2.10,Win32,60,,,,,,,,,,,,,,,SoundMST/Footsteps_F.wav,2,2,SIMILAR,C,,,1,0,0.334585,0,36,36,36,1,,
,,,,,,,,,,,,,,5f740f60b8a1e41acc020269,2021-03-19_20h38.39.092,GuessTheSound,2020.2.10,Win32,60,,,,,,,,,,,,,,,SoundMST/Chicken_A.wav,1,1,OLD,C,,,1,1,0.37873,0,37,37,37,1,,
,,,,,,,,,,,,,,5f740f60b8a1e41acc020269,2021-03-19_20h38.39.092,GuessTheSound,2020.2.10,Win32,60,,,,,,,,,,,,,,,SoundMST/Bullfrog.wav,2,3,NEW,C,,,2,1,0.40558,0,38,38,38,1,,
,,,,,,,,,,,,,,5f740f60b8a1e41acc020269,2021-03-19_20h38.39.092,GuessTheSound,2020.2.10,Win32,60,,,,,,,,,,,,,,,SoundMST/Bowlingpins.wav,1,1,OLD,C,,,1,1,0.967685,0,39,39,39,1,,
,,,,,,,,,,,,,,5f740f60b8a1e41acc020269,2021-03-19_20h38.39.092,GuessTheSound,2020.2.10,Win32,60,,,,,,,,,,,,,,,SoundMST/Helicopter_A.wav,2,3,NEW,C,,,2,1,0.40127,0,40,40,40,1,,
,,,,,,,,,,,,,,5f740f60b8a1e41acc020269,2021-03-19_20h38.39.092,GuessTheSound,2020.2.10,Win32,60,,,,,,,,,,,,,,,SoundMST/Goat_C.wav,2,2,SIMILAR,C,,,1,0,1.618605,0,41,41,41,1,,
,,,,,,,,,,,,,,5f740f60b8a1e41acc020269,2021-03-19_20h38.39.092,GuessTheSound,2020.2.10,Win32,60,,,,,,,,,,,,,,,SoundMST/HairDryer_A.wav,2,3,NEW,C,,,2,1,0.803105,0,42,42,42,1,,
,,,,,,,,,,,,,,5f740f60b8a1e41acc020269,2021-03-19_20h38.39.092,GuessTheSound,2020.2.10,Win32,60,,,,,,,,,,,,,,,SoundMST/Duck_D.wav,2,2,SIMILAR,C,,,1,0,1.05031,0,43,43,43,1,,
,,,,,,,,,,,,,,5f740f60b8a1e41acc020269,2021-03-19_20h38.39.092,GuessTheSound,2020.2.10,Win32,60,,,,,,,,,,,,,,,SoundMST/PaperRip.wav,1,1,OLD,C,,,1,1,1.33519,0,44,44,44,1,,
,,,,,,,,,,,,,,5f740f60b8a1e41acc020269,2021-03-19_20h38.39.092,GuessTheSound,2020.2.10,Win32,60,,,,,,,,,,,,,,,SoundMST/Dog_H.wav,2,3,NEW,C,,,2,1,0.57379,0,45,45,45,1,,
,,,,,,,,,,,,,,5f740f60b8a1e41acc020269,2021-03-19_20h38.39.092,GuessTheSound,2020.2.10,Win32,60,,,,,,,,,,,,,,,SoundMST/Camera.wav,1,1,OLD,C,,,1,1,0.753815,0,46,46,46,1,,
,,,,,,,,,,,,,,5f740f60b8a1e41acc020269,2021-03-19_20h38.39.092,GuessTheSound,2020.2.10,Win32,60,,,,,,,,,,,,,,,SoundMST/Laugh_D.wav,2,2,SIMILAR,C,,,1,0,0.749965,0,47,47,47,1,,
,,,,,,,,,,,,,,5f740f60b8a1e41acc020269,2021-03-19_20h38.39.092,GuessTheSound,2020.2.10,Win32,60,,,,,,,,,,,,,,,SoundMST/Sneeze_B.wav,2,3,NEW,C,,,2,1,0.37642,0,48,48,48,1,,
,,,,,,,,,,,,,,5f740f60b8a1e41acc020269,2021-03-19_20h38.39.092,GuessTheSound,2020.2.10,Win32,60,,,,,,,,,,,,,,,SoundMST/Cow.wav,1,1,OLD,C,,,1,1,0.517745,0,49,49,49,1,,
,,,,,,,,,,,,,,5f740f60b8a1e41acc020269,2021-03-19_20h38.39.092,GuessTheSound,2020.2.10,Win32,60,,,,,,,,,,,,,,,SoundMST/Donkey.wav,2,3,NEW,C,,,2,1,0.524395,0,50,50,50,1,,
,,,,,,,,,,,,,,5f740f60b8a1e41acc020269,2021-03-19_20h38.39.092,GuessTheSound,2020.2.10,Win32,60,,,,,,,,,,,,,,,SoundMST/Coin_E.wav,2,2,SIMILAR,C,,,1,0,0.4002,0,51,51,51,1,,
,,,,,,,,,,,,,,5f740f60b8a1e41acc020269,2021-03-19_20h38.39.092,GuessTheSound,2020.2.10,Win32,60,,,,,,,,,,,,,,,SoundMST/Buzz.wav,2,3,NEW,C,,,2,1,0.63733,0,52,52,52,1,,
,,,,,,,,,,,,,,5f740f60b8a1e41acc020269,2021-03-19_20h38.39.092,GuessTheSound,2020.2.10,Win32,60,,,,,,,,,,,,,,,SoundMST/Piano_D.wav,1,1,OLD,C,,,1,1,0.339745,0,53,53,53,1,,
,,,,,,,,,,,,,,5f740f60b8a1e41acc020269,2021-03-19_20h38.39.092,GuessTheSound,2020.2.10,Win32,60,,,,,,,,,,,,,,,SoundMST/Hammer_A.wav,2,3,NEW,C,,,2,1,0.73427,0,54,54,54,1,,
,,,,,,,,,,,,,,5f740f60b8a1e41acc020269,2021-03-19_20h38.39.092,GuessTheSound,2020.2.10,Win32,60,,,,,,,,,,,,,,,SoundMST/Airhorn.wav,1,1,OLD,C,,,1,1,0.5019,0,55,55,55,1,,
,,,,,,,,,,,,,,5f740f60b8a1e41acc020269,2021-03-19_20h38.39.092,GuessTheSound,2020.2.10,Win32,60,,,,,,,,,,,,,,,SoundMST/Whistle_C.wav,2,2,SIMILAR,C,,,1,0,0.80091,0,56,56,56,1,,
,,,,,,,,,,,,,,5f740f60b8a1e41acc020269,2021-03-19_20h38.39.092,GuessTheSound,2020.2.10,Win32,60,,,,,,,,,,,,,,,SoundMST/Faucet_A.wav,2,3,NEW,C,,,2,1,0.56723,0,57,57,57,1,,
,,,,,,,,,,,,,,5f740f60b8a1e41acc020269,2021-03-19_20h38.39.092,GuessTheSound,2020.2.10,Win32,60,,,,,,,,,,,,,,,SoundMST/Pour_C.wav,2,2,SIMILAR,C,,,1,0,0.76938,0,58,58,58,1,,
,,,,,,,,,,,,,,5f740f60b8a1e41acc020269,2021-03-19_20h38.39.092,GuessTheSound,2020.2.10,Win32,60,,,,,,,,,,,,,,,SoundMST/Crow_B.wav,2,3,NEW,C,,,2,1,0.67467,0,59,59,59,1,,
,,,,,,,,,,,,,,5f740f60b8a1e41acc020269,2021-03-19_20h38.39.092,GuessTheSound,2020.2.10,Win32,60,,,,,,,,,,,,,,,SoundMST/Trumpet_B.wav,2,3,NEW,C,,,2,1,0.652525,0,60,60,60,1,,
,,,,,,,,,,,,,,5f740f60b8a1e41acc020269,2021-03-19_20h38.39.092,GuessTheSound,2020.2.10,Win32,60,,,,,,,,,,,,,,,SoundMST/Bullfrog.wav,1,1,OLD,C,,,1,1,0.505415,0,61,61,61,1,,
,,,,,,,,,,,,,,5f740f60b8a1e41acc020269,2021-03-19_20h38.39.092,GuessTheSound,2020.2.10,Win32,60,,,,,,,,,,,,,,,SoundMST/Helicopter_A.wav,1,1,OLD,C,,,1,1,0.45481,0,62,62,62,1,,
,,,,,,,,,,,,,,5f740f60b8a1e41acc020269,2021-03-19_20h38.39.092,GuessTheSound,2020.2.10,Win32,60,,,,,,,,,,,,,,,SoundMST/Elephant_C.wav,2,3,NEW,C,,,1,0,0.287845,0,63,63,63,1,,
,,,,,,,,,,,,,,5f740f60b8a1e41acc020269,2021-03-19_20h38.39.092,GuessTheSound,2020.2.10,Win32,60,,,,,,,,,,,,,,,SoundMST/Sneeze_B.wav,1,1,OLD,C,,,1,1,0.467945,0,64,64,64,1,,
,,,,,,,,,,,,,,5f740f60b8a1e41acc020269,2021-03-19_20h38.39.092,GuessTheSound,2020.2.10,Win32,60,,,,,,,,,,,,,,,SoundMST/Chime_B.wav,2,3,NEW,C,,,2,1,0.30623,0,65,65,65,1,,
,,,,,,,,,,,,,,5f740f60b8a1e41acc020269,2021-03-19_20h38.39.092,GuessTheSound,2020.2.10,Win32,60,,,,,,,,,,,,,,,SoundMST/Phone_D.wav,2,3,NEW,C,,,2,1,0.45054,0,66,66,66,1,,
,,,,,,,,,,,,,,5f740f60b8a1e41acc020269,2021-03-19_20h38.39.092,GuessTheSound,2020.2.10,Win32,60,,,,,,,,,,,,,,,SoundMST/HairDryer_A.wav,1,1,OLD,C,,,1,1,0.301515,0,67,67,67,1,,
,,,,,,,,,,,,,,5f740f60b8a1e41acc020269,2021-03-19_20h38.39.092,GuessTheSound,2020.2.10,Win32,60,,,,,,,,,,,,,,,SoundMST/Puff_A.wav,2,3,NEW,C,,,2,1,0.35618,0,68,68,68,1,,
,,,,,,,,,,,,,,5f740f60b8a1e41acc020269,2021-03-19_20h38.39.092,GuessTheSound,2020.2.10,Win32,60,,,,,,,,,,,,,,,SoundMST/Dog_F.wav,2,2,SIMILAR,C,,,1,0,0.43611,0,69,69,69,1,,
,,,,,,,,,,,,,,5f740f60b8a1e41acc020269,2021-03-19_20h38.39.092,GuessTheSound,2020.2.10,Win32,60,,,,,,,,,,,,,,,SoundMST/Donkey.wav,1,1,OLD,C,,,1,1,0.31893,0,70,70,70,1,,
,,,,,,,,,,,,,,5f740f60b8a1e41acc020269,2021-03-19_20h38.39.092,GuessTheSound,2020.2.10,Win32,60,,,,,,,,,,,,,,,SoundMST/Toilet_B.wav,2,3,NEW,C,,,2,1,0.302585,0,71,71,71,1,,
,,,,,,,,,,,,,,5f740f60b8a1e41acc020269,2021-03-19_20h38.39.092,GuessTheSound,2020.2.10,Win32,60,,,,,,,,,,,,,,,SoundMST/Writing_A.wav,2,3,NEW,C,,,2,1,0.408455,0,72,72,72,1,,
,,,,,,,,,,,,,,5f740f60b8a1e41acc020269,2021-03-19_20h38.39.092,GuessTheSound,2020.2.10,Win32,60,,,,,,,,,,,,,,,SoundMST/Cello.wav,2,3,NEW,C,,,2,1,0.519085,0,73,73,73,1,,
,,,,,,,,,,,,,,5f740f60b8a1e41acc020269,2021-03-19_20h38.39.092,GuessTheSound,2020.2.10,Win32,60,,,,,,,,,,,,,,,SoundMST/Crow_A.wav,2,2,SIMILAR,C,,,1,0,0.308405,0,74,74,74,1,,
,,,,,,,,,,,,,,5f740f60b8a1e41acc020269,2021-03-19_20h38.39.092,GuessTheSound,2020.2.10,Win32,60,,,,,,,,,,,,,,,SoundMST/Hammer_A.wav,1,1,OLD,C,,,2,0,0.289535,0,75,75,75,1,,
,,,,,,,,,,,,,,5f740f60b8a1e41acc020269,2021-03-19_20h38.39.092,GuessTheSound,2020.2.10,Win32,60,,,,,,,,,,,,,,,SoundMST/Cuckoo_A.wav,2,3,NEW,C,,,2,1,0.319675,0,76,76,76,1,,
,,,,,,,,,,,,,,5f740f60b8a1e41acc020269,2021-03-19_20h38.39.092,GuessTheSound,2020.2.10,Win32,60,,,,,,,,,,,,,,,SoundMST/Buzz.wav,1,1,OLD,C,,,1,1,0.302195,0,77,77,77,1,,
,,,,,,,,,,,,,,5f740f60b8a1e41acc020269,2021-03-19_20h38.39.092,GuessTheSound,2020.2.10,Win32,60,,,,,,,,,,,,,,,SoundMST/Siren_E.wav,2,3,NEW,C,,,2,1,0.366975,0,78,78,78,1,,
,,,,,,,,,,,,,,5f740f60b8a1e41acc020269,2021-03-19_20h38.39.092,GuessTheSound,2020.2.10,Win32,60,,,,,,,,,,,,,,,SoundMST/Trumpet_B.wav,1,1,OLD,C,,,1,1,0.301145,0,79,79,79,1,,
,,,,,,,,,,,,,,5f740f60b8a1e41acc020269,2021-03-19_20h38.39.092,GuessTheSound,2020.2.10,Win32,60,,,,,,,,,,,,,,,SoundMST/Wind_B.wav,2,3,NEW,C,,,2,1,0.32018,0,80,80,80,1,,
,,,,,,,,,,,,,,5f740f60b8a1e41acc020269,2021-03-19_20h38.39.092,GuessTheSound,2020.2.10,Win32,60,,,,,,,,,,,,,,,SoundMST/Cat_A.wav,2,3,NEW,C,,,2,1,0.75315,0,81,81,81,1,,
,,,,,,,,,,,,,,5f740f60b8a1e41acc020269,2021-03-19_20h38.39.092,GuessTheSound,2020.2.10,Win32,60,,,,,,,,,,,,,,,SoundMST/Phone_E.wav,2,2,SIMILAR,C,,,1,0,0.354325,0,82,82,82,1,,
,,,,,,,,,,,,,,5f740f60b8a1e41acc020269,2021-03-19_20h38.39.092,GuessTheSound,2020.2.10,Win32,60,,,,,,,,,,,,,,,SoundMST/Chomp_A.wav,2,3,NEW,C,,,2,1,0.96714,0,83,83,83,1,,
,,,,,,,,,,,,,,5f740f60b8a1e41acc020269,2021-03-19_20h38.39.092,GuessTheSound,2020.2.10,Win32,60,,,,,,,,,,,,,,,SoundMST/Elephant_A.wav,2,2,SIMILAR,C,,,2,1,0.39135,0,84,84,84,1,,
,,,,,,,,,,,,,,5f740f60b8a1e41acc020269,2021-03-19_20h38.39.092,GuessTheSound,2020.2.10,Win32,60,,,,,,,,,,,,,,,SoundMST/Cup.wav,2,3,NEW,C,,,2,1,1.400465,0,85,85,85,1,,
,,,,,,,,,,,,,,5f740f60b8a1e41acc020269,2021-03-19_20h38.39.092,GuessTheSound,2020.2.10,Win32,60,,,,,,,,,,,,,,,SoundMST/Chime_A.wav,2,2,SIMILAR,C,,,2,1,0.318495,0,86,86,86,1,,
,,,,,,,,,,,,,,5f740f60b8a1e41acc020269,2021-03-19_20h38.39.092,GuessTheSound,2020.2.10,Win32,60,,,,,,,,,,,,,,,SoundMST/Droplet_B.wav,2,3,NEW,C,,,2,1,0.33352,0,87,87,87,1,,
,,,,,,,,,,,,,,5f740f60b8a1e41acc020269,2021-03-19_20h38.39.092,GuessTheSound,2020.2.10,Win32,60,,,,,,,,,,,,,,,SoundMST/Faucet_C.wav,2,2,SIMILAR,C,,,2,1,0.417955,0,88,88,88,1,,
,,,,,,,,,,,,,,5f740f60b8a1e41acc020269,2021-03-19_20h38.39.092,GuessTheSound,2020.2.10,Win32,60,,,,,,,,,,,,,,,SoundMST/Puff_A.wav,1,1,OLD,C,,,1,1,0.250715,0,89,89,89,1,,
,,,,,,,,,,,,,,5f740f60b8a1e41acc020269,2021-03-19_20h38.39.092,GuessTheSound,2020.2.10,Win32,60,,,,,,,,,,,,,,,SoundMST/Clap_B.wav,2,3,NEW,C,,,1,0,0.519655,0,90,90,90,1,,
,,,,,,,,,,,,,,5f740f60b8a1e41acc020269,2021-03-19_20h38.39.092,GuessTheSound,2020.2.10,Win32,60,,,,,,,,,,,,,,,SoundMST/Cello.wav,1,1,OLD,C,,,1,1,0.45372,0,91,91,91,1,,
,,,,,,,,,,,,,,5f740f60b8a1e41acc020269,2021-03-19_20h38.39.092,GuessTheSound,2020.2.10,Win32,60,,,,,,,,,,,,,,,SoundMST/Mosquito_B.wav,2,3,NEW,C,,,2,1,0.244145,0,92,92,92,1,,
,,,,,,,,,,,,,,5f740f60b8a1e41acc020269,2021-03-19_20h38.39.092,GuessTheSound,2020.2.10,Win32,60,,,,,,,,,,,,,,,SoundMST/Writing_C.wav,2,2,SIMILAR,C,,,2,1,0.46725,0,93,93,93,1,,
,,,,,,,,,,,,,,5f740f60b8a1e41acc020269,2021-03-19_20h38.39.092,GuessTheSound,2020.2.10,Win32,60,,,,,,,,,,,,,,,SoundMST/Guitar_B.wav,2,3,NEW,C,,,2,1,0.34617,0,94,94,94,1,,
,,,,,,,,,,,,,,5f740f60b8a1e41acc020269,2021-03-19_20h38.39.092,GuessTheSound,2020.2.10,Win32,60,,,,,,,,,,,,,,,SoundMST/Toilet_B.wav,1,1,OLD,C,,,1,1,0.31798,0,95,95,95,1,,
,,,,,,,,,,,,,,5f740f60b8a1e41acc020269,2021-03-19_20h38.39.092,GuessTheSound,2020.2.10,Win32,60,,,,,,,,,,,,,,,SoundMST/Bagpipe.wav,2,3,NEW,C,,,2,1,0.35207,0,96,96,96,1,,
,,,,,,,,,,,,,,5f740f60b8a1e41acc020269,2021-03-19_20h38.39.092,GuessTheSound,2020.2.10,Win32,60,,,,,,,,,,,,,,,SoundMST/Cuckoo_A.wav,1,1,OLD,C,,,1,1,0.334965,0,97,97,97,1,,
,,,,,,,,,,,,,,5f740f60b8a1e41acc020269,2021-03-19_20h38.39.092,GuessTheSound,2020.2.10,Win32,60,,,,,,,,,,,,,,,SoundMST/Wind_B.wav,1,1,OLD,C,,,1,1,0.417975,0,98,98,98,1,,
,,,,,,,,,,,,,,5f740f60b8a1e41acc020269,2021-03-19_20h38.39.092,GuessTheSound,2020.2.10,Win32,60,,,,,,,,,,,,,,,SoundMST/Cough_D.wav,2,3,NEW,C,,,2,1,0.2842,0,99,99,99,1,,
,,,,,,,,,,,,,,5f740f60b8a1e41acc020269,2021-03-19_20h38.39.092,GuessTheSound,2020.2.10,Win32,60,,,,,,,,,,,,,,,SoundMST/ManWhistle.wav,2,3,NEW,C,,,2,1,0.400965,0,100,100,100,1,,
,,,,,,,,,,,,,,5f740f60b8a1e41acc020269,2021-03-19_20h38.39.092,GuessTheSound,2020.2.10,Win32,60,,,,,,,,,,,,,,,SoundMST/Chomp_C.wav,2,2,SIMILAR,C,,,1,0,0.33548,0,101,101,101,1,,
,,,,,,,,,,,,,,5f740f60b8a1e41acc020269,2021-03-19_20h38.39.092,GuessTheSound,2020.2.10,Win32,60,,,,,,,,,,,,,,,SoundMST/Siren_A.wav,2,2,SIMILAR,C,,,2,1,0.13981,0,102,102,102,1,,
,,,,,,,,,,,,,,5f740f60b8a1e41acc020269,2021-03-19_20h38.39.092,GuessTheSound,2020.2.10,Win32,60,,,,,,,,,,,,,,,SoundMST/Thunder_A.wav,2,3,NEW,C,,,2,1,0.352205,0,103,103,103,1,,
,,,,,,,,,,,,,,5f740f60b8a1e41acc020269,2021-03-19_20h38.39.092,GuessTheSound,2020.2.10,Win32,60,,,,,,,,,,,,,,,SoundMST/Cat_A.wav,1,1,OLD,C,,,1,1,0.401685,0,104,104,104,1,,
,,,,,,,,,,,,,,5f740f60b8a1e41acc020269,2021-03-19_20h38.39.092,GuessTheSound,2020.2.10,Win32,60,,,,,,,,,,,,,,,SoundMST/Snore_C.wav,2,3,NEW,C,,,2,1,0.88444,0,105,105,105,1,,
,,,,,,,,,,,,,,5f740f60b8a1e41acc020269,2021-03-19_20h38.39.092,GuessTheSound,2020.2.10,Win32,60,,,,,,,,,,,,,,,SoundMST/Cup.wav,1,1,OLD,C,,,1,1,0.601435,0,106,106,106,1,,
,,,,,,,,,,,,,,5f740f60b8a1e41acc020269,2021-03-19_20h38.39.092,GuessTheSound,2020.2.10,Win32,60,,,,,,,,,,,,,,,SoundMST/Baby_F.wav,2,3,NEW,C,,,2,1,0.29187,0,107,107,107,1,,
,,,,,,,,,,,,,,5f740f60b8a1e41acc020269,2021-03-19_20h38.39.092,GuessTheSound,2020.2.10,Win32,60,,,,,,,,,,,,,,,SoundMST/Droplet_B.wav,1,1,OLD,C,,,1,1,0.613095,0,108,108,108,1,,
,,,,,,,,,,,,,,5f740f60b8a1e41acc020269,2021-03-19_20h38.39.092,GuessTheSound,2020.2.10,Win32,60,,,,,,,,,,,,,,,SoundMST/DialTone.wav,2,3,NEW,C,,,2,1,0.301665,0,109,109,109,1,,
,,,,,,,,,,,,,,5f740f60b8a1e41acc020269,2021-03-19_20h38.39.092,GuessTheSound,2020.2.10,Win32,60,,,,,,,,,,,,,,,SoundMST/Clap_C.wav,2,2,SIMILAR,C,,,1,0,0.22801,0,110,110,110,1,,
,,,,,,,,,,,,,,5f740f60b8a1e41acc020269,2021-03-19_20h38.39.092,GuessTheSound,2020.2.10,Win32,60,,,,,,,,,,,,,,,SoundMST/Heartbeat.wav,2,3,NEW,C,,,2,1,0.37149,0,111,111,111,1,,
,,,,,,,,,,,,,,5f740f60b8a1e41acc020269,2021-03-19_20h38.39.092,GuessTheSound,2020.2.10,Win32,60,,,,,,,,,,,,,,,SoundMST/Guitar_B.wav,1,1,OLD,C,,,1,1,0.09118,0,112,112,112,1,,
,,,,,,,,,,,,,,5f740f60b8a1e41acc020269,2021-03-19_20h38.39.092,GuessTheSound,2020.2.10,Win32,60,,,,,,,,,,,,,,,SoundMST/Typing.wav,2,3,NEW,C,,,2,1,0.34179,0,113,113,113,1,,
,,,,,,,,,,,,,,5f740f60b8a1e41acc020269,2021-03-19_20h38.39.092,GuessTheSound,2020.2.10,Win32,60,,,,,,,,,,,,,,,SoundMST/Mosquito_B.wav,1,1,OLD,C,,,1,1,0.48735,0,114,114,114,1,,
,,,,,,,,,,,,,,5f740f60b8a1e41acc020269,2021-03-19_20h38.39.092,GuessTheSound,2020.2.10,Win32,60,,,,,,,,,,,,,,,SoundMST/Airplane_B.wav,2,3,NEW,C,,,2,1,0.368535,0,115,115,115,1,,
,,,,,,,,,,,,,,5f740f60b8a1e41acc020269,2021-03-19_20h38.39.092,GuessTheSound,2020.2.10,Win32,60,,,,,,,,,,,,,,,SoundMST/ManWhistle.wav,1,1,OLD,C,,,1,1,0.31166,0,116,116,116,1,,
,,,,,,,,,,,,,,5f740f60b8a1e41acc020269,2021-03-19_20h38.39.092,GuessTheSound,2020.2.10,Win32,60,,,,,,,,,,,,,,,SoundMST/Steam.wav,2,3,NEW,C,,,2,1,0.13515,0,117,117,117,1,,
,,,,,,,,,,,,,,5f740f60b8a1e41acc020269,2021-03-19_20h38.39.092,GuessTheSound,2020.2.10,Win32,60,,,,,,,,,,,,,,,SoundMST/Baby_E.wav,2,2,SIMILAR,C,,,2,1,0.314475,0,118,118,118,1,,
,,,,,,,,,,,,,,5f740f60b8a1e41acc020269,2021-03-19_20h38.39.092,GuessTheSound,2020.2.10,Win32,60,,,,,,,,,,,,,,,SoundMST/Bagpipe.wav,1,1,OLD,C,,,1,1,0.36732,0,119,119,119,1,,
,,,,,,,,,,,,,,5f740f60b8a1e41acc020269,2021-03-19_20h38.39.092,GuessTheSound,2020.2.10,Win32,60,,,,,,,,,,,,,,,SoundMST/Cough_F.wav,2,2,SIMILAR,C,,,1,0,1.25238,0,120,120,120,1,,
,,,,,,,,,,,,,,5f740f60b8a1e41acc020269,2021-03-19_20h38.39.092,GuessTheSound,2020.2.10,Win32,60,,,,,,,,,,,,,,,SoundMST/Airplane_B.wav,1,1,OLD,C,,,1,1,0.290205,0,121,121,121,1,,
,,,,,,,,,,,,,,5f740f60b8a1e41acc020269,2021-03-19_20h38.39.092,GuessTheSound,2020.2.10,Win32,60,,,,,,,,,,,,,,,SoundMST/DialTone.wav,1,1,OLD,C,,,1,1,0.31804,0,122,122,122,1,,
,,,,,,,,,,,,,,5f740f60b8a1e41acc020269,2021-03-19_20h38.39.092,GuessTheSound,2020.2.10,Win32,60,,,,,,,,,,,,,,,SoundMST/Thunder_A.wav,1,1,OLD,C,,,1,1,0.27573,0,123,123,123,1,,
,,,,,,,,,,,,,,5f740f60b8a1e41acc020269,2021-03-19_20h38.39.092,GuessTheSound,2020.2.10,Win32,60,,,,,,,,,,,,,,,SoundMST/Typing.wav,1,1,OLD,C,,,1,1,0.33688,0,124,124,124,1,,
,,,,,,,,,,,,,,5f740f60b8a1e41acc020269,2021-03-19_20h38.39.092,GuessTheSound,2020.2.10,Win32,60,,,,,,,,,,,,,,,SoundMST/Snore_E.wav,2,2,SIMILAR,C,,,1,0,0.318365,0,125,125,125,1,,
,,,,,,,,,,,,,,5f740f60b8a1e41acc020269,2021-03-19_20h38.39.092,GuessTheSound,2020.2.10,Win32,60,,,,,,,,,,,,,,,SoundMST/Heartbeat.wav,1,1,OLD,C,,,1,1,0.289675,0,126,126,126,1,,
,,,,,,,,,,,,,,5f740f60b8a1e41acc020269,2021-03-19_20h38.39.092,GuessTheSound,2020.2.10,Win32,60,,,,,,,,,,,,,,,SoundMST/Steam.wav,1,1,OLD,C,,,1,1,0.53446,0,127,127,127,1,,
,,,,,,,,,,,,,,5f740f60b8a1e41acc020269,2021-03-19_20h38.39.092,GuessTheSound,2020.2.10,Win32,60,,,,,,,,,,,,,,,SoundMST/Airplane_B.wav,2,3,NEW,D,,,2,1,1.23439,0,128,128,128,1,,
,,,,,,,,,,,,,,5f740f60b8a1e41acc020269,2021-03-19_20h38.39.092,GuessTheSound,2020.2.10,Win32,60,,,,,,,,,,,,,,,,,,,,,,,,,,,,,,space,32.13969
