VolumeContinueKey.keys,VolumeContinueKey.rt,ContinueResp.keys,ContinueResp.rt,WelcomeContinueKey2.keys,WelcomeContinueKey2.rt,Practice_resp.keys,Practice_resp.corr,Practice_resp.rt,PracticeTrials.thisRepN,PracticeTrials.thisTrialN,PracticeTrials.thisN,PracticeTrials.thisIndex,PracticeTrials.ran,SoundFiles3,Correct,participant,session,date,expName,psychopyVersion,OS,frameRate,StartTast.keys,StartTast.rt,MSTResp.keys,MSTResp.corr,MSTResp.rt,trials.thisRepN,trials.thisTrialN,trials.thisN,trials.thisIndex,trials.ran,ExitKey.keys,ExitKey.rt
space,9.849505,space,21.06329,space,1.34689,3,1,5.61412,0,0,0,0,1,Practice/Seagull_A.wav,3,5fa1a5d5c838ab1b4d1516de,001,2021-01-18_04h52.39.382,GuessTheSound,2020.2.10,MacIntel,60,,,,,,,,,,,,
,,,,,,2,0,15.35192,0,1,1,1,1,Practice/Skid_B.wav,3,5fa1a5d5c838ab1b4d1516de,001,2021-01-18_04h52.39.382,GuessTheSound,2020.2.10,MacIntel,60,,,,,,,,,,,,
,,,,,,1,1,0.883775,0,2,2,2,1,Practice/Seagull_A.wav,1,5fa1a5d5c838ab1b4d1516de,001,2021-01-18_04h52.39.382,GuessTheSound,2020.2.10,MacIntel,60,,,,,,,,,,,,
,,,,,,3,1,1.449875,0,3,3,3,1,Practice/Gargle_A.wav,3,5fa1a5d5c838ab1b4d1516de,001,2021-01-18_04h52.39.382,GuessTheSound,2020.2.10,MacIntel,60,,,,,,,,,,,,
,,,,,,1,0,3.183395,0,4,4,4,1,Practice/Gargle_B.wav,2,5fa1a5d5c838ab1b4d1516de,001,2021-01-18_04h52.39.382,GuessTheSound,2020.2.10,MacIntel,60,,,,,,,,,,,,
,,,,,,,,,,,,,,Initial/NoRepeat/Elephant_A.wav,3,5fa1a5d5c838ab1b4d1516de,001,2021-01-18_04h52.39.382,GuessTheSound,2020.2.10,MacIntel,60,space,7.81506,2,0,3.0008,0,0,0,0,1,,
,,,,,,,,,,,,,,Initial/Repeat/ManWhistle.wav,3,5fa1a5d5c838ab1b4d1516de,001,2021-01-18_04h52.39.382,GuessTheSound,2020.2.10,MacIntel,60,,,2,0,1.65013,0,1,1,1,1,,
,,,,,,,,,,,,,,Initial/Doubled/Cuckoo_A.wav,3,5fa1a5d5c838ab1b4d1516de,001,2021-01-18_04h52.39.382,GuessTheSound,2020.2.10,MacIntel,60,,,2,0,0.501555,0,2,2,2,1,,
,,,,,,,,,,,,,,Initial/Doubled/Piano_A.wav,3,5fa1a5d5c838ab1b4d1516de,001,2021-01-18_04h52.39.382,GuessTheSound,2020.2.10,MacIntel,60,,,3,1,0.651285,0,3,3,3,1,,
,,,,,,,,,,,,,,Initial/Doubled/Siren_A.wav,3,5fa1a5d5c838ab1b4d1516de,001,2021-01-18_04h52.39.382,GuessTheSound,2020.2.10,MacIntel,60,,,2,0,1.53447,0,4,4,4,1,,
,,,,,,,,,,,,,,Test/Foils/Bird.wav,3,5fa1a5d5c838ab1b4d1516de,001,2021-01-18_04h52.39.382,GuessTheSound,2020.2.10,MacIntel,60,,,2,0,1.134195,0,5,5,5,1,,
,,,,,,,,,,,,,,Initial/Doubled/Cat_A.wav,3,5fa1a5d5c838ab1b4d1516de,001,2021-01-18_04h52.39.382,GuessTheSound,2020.2.10,MacIntel,60,,,2,0,1.06697,0,6,6,6,1,,
,,,,,,,,,,,,,,Initial/NoRepeat/Baby_B.wav,3,5fa1a5d5c838ab1b4d1516de,001,2021-01-18_04h52.39.382,GuessTheSound,2020.2.10,MacIntel,60,,,3,1,0.882365,0,7,7,7,1,,
,,,,,,,,,,,,,,Initial/Doubled/Writing_A.wav,3,5fa1a5d5c838ab1b4d1516de,001,2021-01-18_04h52.39.382,GuessTheSound,2020.2.10,MacIntel,60,,,2,0,0.31841,0,8,8,8,1,,
,,,,,,,,,,,,,,Piano_D.wav,2,5fa1a5d5c838ab1b4d1516de,001,2021-01-18_04h52.39.382,GuessTheSound,2020.2.10,MacIntel,60,,,2,1,0.73417,0,9,9,9,1,,
,,,,,,,,,,,,,,Initial/NoRepeat/Sleighbells_B.wav,3,5fa1a5d5c838ab1b4d1516de,001,2021-01-18_04h52.39.382,GuessTheSound,2020.2.10,MacIntel,60,,,2,0,0.32107,0,10,10,10,1,,
,,,,,,,,,,,,,,Test/Foils/Typing.wav,3,5fa1a5d5c838ab1b4d1516de,001,2021-01-18_04h52.39.382,GuessTheSound,2020.2.10,MacIntel,60,,,2,0,0.67728,0,11,11,11,1,,
,,,,,,,,,,,,,,Initial/Repeat/Pour.wav,3,5fa1a5d5c838ab1b4d1516de,001,2021-01-18_04h52.39.382,GuessTheSound,2020.2.10,MacIntel,60,,,2,0,0.400945,0,12,12,12,1,,
,,,,,,,,,,,,,,Initial/Doubled/HairDryer_A.wav,3,5fa1a5d5c838ab1b4d1516de,001,2021-01-18_04h52.39.382,GuessTheSound,2020.2.10,MacIntel,60,,,2,0,0.150005,0,13,13,13,1,,
,,,,,,,,,,,,,,Initial/Doubled/Cuckoo_A.wav,1,5fa1a5d5c838ab1b4d1516de,001,2021-01-18_04h52.39.382,GuessTheSound,2020.2.10,MacIntel,60,,,1,1,3.101715,0,14,14,14,1,,
,,,,,,,,,,,,,,Initial/Doubled/Chime_A.wav,3,5fa1a5d5c838ab1b4d1516de,001,2021-01-18_04h52.39.382,GuessTheSound,2020.2.10,MacIntel,60,,,2,0,0.01705,0,15,15,15,1,,
,,,,,,,,,,,,,,Initial/NoRepeat/Fireworks.wav,3,5fa1a5d5c838ab1b4d1516de,001,2021-01-18_04h52.39.382,GuessTheSound,2020.2.10,MacIntel,60,,,2,0,0.372215,0,16,16,16,1,,
,,,,,,,,,,,,,,Baby_A.wav,2,5fa1a5d5c838ab1b4d1516de,001,2021-01-18_04h52.39.382,GuessTheSound,2020.2.10,MacIntel,60,,,1,0,0.400265,0,17,17,17,1,,
,,,,,,,,,,,,,,Test/Foils/DialTone.wav,3,5fa1a5d5c838ab1b4d1516de,001,2021-01-18_04h52.39.382,GuessTheSound,2020.2.10,MacIntel,60,,,3,1,0.25021,0,18,18,18,1,,
,,,,,,,,,,,,,,Siren_B.wav,2,5fa1a5d5c838ab1b4d1516de,001,2021-01-18_04h52.39.382,GuessTheSound,2020.2.10,MacIntel,60,,,1,0,1.900215,0,19,19,19,1,,
,,,,,,,,,,,,,,Initial/Repeat/Sneeze_B.wav,3,5fa1a5d5c838ab1b4d1516de,001,2021-01-18_04h52.39.382,GuessTheSound,2020.2.10,MacIntel,60,,,2,0,1.53394,0,20,20,20,1,,
,,,,,,,,,,,,,,Bird_C.wav,2,5fa1a5d5c838ab1b4d1516de,001,2021-01-18_04h52.39.382,GuessTheSound,2020.2.10,MacIntel,60,,,2,1,1.18383,0,21,21,21,1,,
,,,,,,,,,,,,,,Pour_D.wav,2,5fa1a5d5c838ab1b4d1516de,001,2021-01-18_04h52.39.382,GuessTheSound,2020.2.10,MacIntel,60,,,1,0,0.349965,0,22,22,22,1,,
,,,,,,,,,,,,,,Test/Foils/Camera.wav,3,5fa1a5d5c838ab1b4d1516de,001,2021-01-18_04h52.39.382,GuessTheSound,2020.2.10,MacIntel,60,,,2,0,1.46555,0,23,23,23,1,,
,,,,,,,,,,,,,,Initial/Doubled/Writing_A.wav,1,5fa1a5d5c838ab1b4d1516de,001,2021-01-18_04h52.39.382,GuessTheSound,2020.2.10,MacIntel,60,,,1,1,0.417695,0,24,24,24,1,,
,,,,,,,,,,,,,,Test/Foils/Typing.wav,1,5fa1a5d5c838ab1b4d1516de,001,2021-01-18_04h52.39.382,GuessTheSound,2020.2.10,MacIntel,60,,,1,1,0.66774,0,25,25,25,1,,
,,,,,,,,,,,,,,Initial/NoRepeat/Snore_B.wav,3,5fa1a5d5c838ab1b4d1516de,001,2021-01-18_04h52.39.382,GuessTheSound,2020.2.10,MacIntel,60,,,2,0,1.567815,0,26,26,26,1,,
,,,,,,,,,,,,,,Baby_C.wav,2,5fa1a5d5c838ab1b4d1516de,001,2021-01-18_04h52.39.382,GuessTheSound,2020.2.10,MacIntel,60,,,3,0,0.69952,0,27,27,27,1,,
,,,,,,,,,,,,,,Siren_C.wav,2,5fa1a5d5c838ab1b4d1516de,001,2021-01-18_04h52.39.382,GuessTheSound,2020.2.10,MacIntel,60,,,1,0,0.699995,0,28,28,28,1,,
,,,,,,,,,,,,,,Initial/Doubled/Chime_A.wav,1,5fa1a5d5c838ab1b4d1516de,001,2021-01-18_04h52.39.382,GuessTheSound,2020.2.10,MacIntel,60,,,1,1,0.367235,0,29,29,29,1,,
,,,,,,,,,,,,,,Piano_C.wav,2,5fa1a5d5c838ab1b4d1516de,001,2021-01-18_04h52.39.382,GuessTheSound,2020.2.10,MacIntel,60,,,1,0,0.433835,0,30,30,30,1,,
,,,,,,,,,,,,,,Initial/NoRepeat/Fireworks.wav,1,5fa1a5d5c838ab1b4d1516de,001,2021-01-18_04h52.39.382,GuessTheSound,2020.2.10,MacIntel,60,,,1,1,0.067595,0,31,31,31,1,,
,,,,,,,,,,,,,,Pour_C.wav,2,5fa1a5d5c838ab1b4d1516de,001,2021-01-18_04h52.39.382,GuessTheSound,2020.2.10,MacIntel,60,,,1,0,0.33273,0,32,32,32,1,,
,,,,,,,,,,,,,,Bird_D.wav,2,5fa1a5d5c838ab1b4d1516de,001,2021-01-18_04h52.39.382,GuessTheSound,2020.2.10,MacIntel,60,,,1,0,0.650435,0,33,33,33,1,,
,,,,,,,,,,,,,,Initial/Repeat/Airplane_B.wav,3,5fa1a5d5c838ab1b4d1516de,001,2021-01-18_04h52.39.382,GuessTheSound,2020.2.10,MacIntel,60,,,2,0,0.55767,0,34,34,34,1,,
,,,,,,,,,,,,,,Test/Foils/Buzz.wav,3,5fa1a5d5c838ab1b4d1516de,001,2021-01-18_04h52.39.382,GuessTheSound,2020.2.10,MacIntel,60,,,2,0,0.39458,0,35,35,35,1,,
,,,,,,,,,,,,,,Test/Foils/Donkey.wav,3,5fa1a5d5c838ab1b4d1516de,001,2021-01-18_04h52.39.382,GuessTheSound,2020.2.10,MacIntel,60,,,2,0,0.017705,0,36,36,36,1,,
,,,,,,,,,,,,,,Initial/Doubled/Cuckoo_A.wav,1,5fa1a5d5c838ab1b4d1516de,001,2021-01-18_04h52.39.382,GuessTheSound,2020.2.10,MacIntel,60,,,1,1,0.350285,0,37,37,37,1,,
,,,,,,,,,,,,,,Initial/Doubled/Chicken_A.wav,3,5fa1a5d5c838ab1b4d1516de,001,2021-01-18_04h52.39.382,GuessTheSound,2020.2.10,MacIntel,60,,,3,1,1.135655,0,38,38,38,1,,
,,,,,,,,,,,,,,Initial/Doubled/Laugh_A.wav,3,5fa1a5d5c838ab1b4d1516de,001,2021-01-18_04h52.39.382,GuessTheSound,2020.2.10,MacIntel,60,,,3,1,0.76825,0,39,39,39,1,,
,,,,,,,,,,,,,,Test/Foils/Typing.wav,1,5fa1a5d5c838ab1b4d1516de,001,2021-01-18_04h52.39.382,GuessTheSound,2020.2.10,MacIntel,60,,,1,1,0.03426,0,40,40,40,1,,
,,,,,,,,,,,,,,Initial/Doubled/Cough_A.wav,3,5fa1a5d5c838ab1b4d1516de,001,2021-01-18_04h52.39.382,GuessTheSound,2020.2.10,MacIntel,60,,,2,0,1.318095,0,41,41,41,1,,
,,,,,,,,,,,,,,Initial/Doubled/Clap_A.wav,3,5fa1a5d5c838ab1b4d1516de,001,2021-01-18_04h52.39.382,GuessTheSound,2020.2.10,MacIntel,60,,,2,0,1.25145,0,42,42,42,1,,
,,,,,,,,,,,,,,Initial/Doubled/Writing_A.wav,1,5fa1a5d5c838ab1b4d1516de,001,2021-01-18_04h52.39.382,GuessTheSound,2020.2.10,MacIntel,60,,,1,1,0.0352,0,43,43,43,1,,
,,,,,,,,,,,,,,Initial/Doubled/Chomp_A.wav,3,5fa1a5d5c838ab1b4d1516de,001,2021-01-18_04h52.39.382,GuessTheSound,2020.2.10,MacIntel,60,,,2,0,0.31823,0,44,44,44,1,,
,,,,,,,,,,,,,,Initial/Doubled/CarStart_A.wav,3,5fa1a5d5c838ab1b4d1516de,001,2021-01-18_04h52.39.382,GuessTheSound,2020.2.10,MacIntel,60,,,2,0,0.132445,0,45,45,45,1,,
,,,,,,,,,,,,,,Initial/NoRepeat/Fireworks.wav,1,5fa1a5d5c838ab1b4d1516de,001,2021-01-18_04h52.39.382,GuessTheSound,2020.2.10,MacIntel,60,,,1,1,0.03341,0,46,46,46,1,,
,,,,,,,,,,,,,,Initial/NoRepeat/Toilet_B.wav,3,5fa1a5d5c838ab1b4d1516de,001,2021-01-18_04h52.39.382,GuessTheSound,2020.2.10,MacIntel,60,,,2,0,0.085345,0,47,47,47,1,,
,,,,,,,,,,,,,,Initial/NoRepeat/Cow.wav,3,5fa1a5d5c838ab1b4d1516de,001,2021-01-18_04h52.39.382,GuessTheSound,2020.2.10,MacIntel,60,,,2,0,0.63278,0,48,48,48,1,,
,,,,,,,,,,,,,,Initial/NoRepeat/Helicopter_A.wav,3,5fa1a5d5c838ab1b4d1516de,001,2021-01-18_04h52.39.382,GuessTheSound,2020.2.10,MacIntel,60,,,2,0,0.32256,0,49,49,49,1,,
,,,,,,,,,,,,,,Initial/Doubled/Dog_A.wav,3,5fa1a5d5c838ab1b4d1516de,001,2021-01-18_04h52.39.382,GuessTheSound,2020.2.10,MacIntel,60,,,2,0,0.241685,0,50,50,50,1,,
,,,,,,,,,,,,,,Test/Foils/Wind_B.wav,3,5fa1a5d5c838ab1b4d1516de,001,2021-01-18_04h52.39.382,GuessTheSound,2020.2.10,MacIntel,60,,,2,0,1.60121,0,51,51,51,1,,
,,,,,,,,,,,,,,Initial/Doubled/Chime_A.wav,1,5fa1a5d5c838ab1b4d1516de,001,2021-01-18_04h52.39.382,GuessTheSound,2020.2.10,MacIntel,60,,,1,1,0.267225,0,52,52,52,1,,
,,,,,,,,,,,,,,Laugh_C.wav,2,5fa1a5d5c838ab1b4d1516de,001,2021-01-18_04h52.39.382,GuessTheSound,2020.2.10,MacIntel,60,,,1,0,0.002915,0,53,53,53,1,,
,,,,,,,,,,,,,,Cough_D.wav,2,5fa1a5d5c838ab1b4d1516de,001,2021-01-18_04h52.39.382,GuessTheSound,2020.2.10,MacIntel,60,,,1,0,0.167775,0,54,54,54,1,,
,,,,,,,,,,,,,,Test/Foils/Buzz.wav,1,5fa1a5d5c838ab1b4d1516de,001,2021-01-18_04h52.39.382,GuessTheSound,2020.2.10,MacIntel,60,,,1,1,0.115505,0,55,55,55,1,,
,,,,,,,,,,,,,,Initial/Repeat/Howl.wav,3,5fa1a5d5c838ab1b4d1516de,001,2021-01-18_04h52.39.382,GuessTheSound,2020.2.10,MacIntel,60,,,2,0,0.23382,0,56,56,56,1,,
,,,,,,,,,,,,,,Initial/NoRepeat/Toilet_B.wav,1,5fa1a5d5c838ab1b4d1516de,001,2021-01-18_04h52.39.382,GuessTheSound,2020.2.10,MacIntel,60,,,1,1,0.25161,0,57,57,57,1,,
,,,,,,,,,,,,,,CarStart_D.wav,2,5fa1a5d5c838ab1b4d1516de,001,2021-01-18_04h52.39.382,GuessTheSound,2020.2.10,MacIntel,60,,,1,0,0.150935,0,58,58,58,1,,
,,,,,,,,,,,,,,Chomp_B.wav,2,5fa1a5d5c838ab1b4d1516de,001,2021-01-18_04h52.39.382,GuessTheSound,2020.2.10,MacIntel,60,,,1,0,0.233875,0,59,59,59,1,,
,,,,,,,,,,,,,,Initial/Doubled/Clap_A.wav,1,5fa1a5d5c838ab1b4d1516de,001,2021-01-18_04h52.39.382,GuessTheSound,2020.2.10,MacIntel,60,,,1,1,0.08375,0,60,60,60,1,,
,,,,,,,,,,,,,,Initial/Doubled/Bubbles_A.wav,3,5fa1a5d5c838ab1b4d1516de,001,2021-01-18_04h52.39.382,GuessTheSound,2020.2.10,MacIntel,60,,,2,0,0.13349,0,61,61,61,1,,
,,,,,,,,,,,,,,Dog_C.wav,2,5fa1a5d5c838ab1b4d1516de,001,2021-01-18_04h52.39.382,GuessTheSound,2020.2.10,MacIntel,60,,,1,0,0.40107,0,62,62,62,1,,
,,,,,,,,,,,,,,Laugh_D.wav,2,5fa1a5d5c838ab1b4d1516de,001,2021-01-18_04h52.39.382,GuessTheSound,2020.2.10,MacIntel,60,,,1,0,0.383855,0,63,63,63,1,,
,,,,,,,,,,,,,,Initial/NoRepeat/Helicopter_A.wav,1,5fa1a5d5c838ab1b4d1516de,001,2021-01-18_04h52.39.382,GuessTheSound,2020.2.10,MacIntel,60,,,1,1,0.334295,0,64,64,64,1,,
,,,,,,,,,,,,,,Cough_C.wav,2,5fa1a5d5c838ab1b4d1516de,001,2021-01-18_04h52.39.382,GuessTheSound,2020.2.10,MacIntel,60,,,1,0,0.184735,0,65,65,65,1,,
,,,,,,,,,,,,,,Test/Foils/PaperRip.wav,3,5fa1a5d5c838ab1b4d1516de,001,2021-01-18_04h52.39.382,GuessTheSound,2020.2.10,MacIntel,60,,,2,0,0.218865,0,66,66,66,1,,
,,,,,,,,,,,,,,Test/Foils/Wind_B.wav,1,5fa1a5d5c838ab1b4d1516de,001,2021-01-18_04h52.39.382,GuessTheSound,2020.2.10,MacIntel,60,,,1,1,0.18443,0,67,67,67,1,,
,,,,,,,,,,,,,,CarStart_B.wav,2,5fa1a5d5c838ab1b4d1516de,001,2021-01-18_04h52.39.382,GuessTheSound,2020.2.10,MacIntel,60,,,1,0,0.03614,0,68,68,68,1,,
,,,,,,,,,,,,,,Chomp_C.wav,2,5fa1a5d5c838ab1b4d1516de,001,2021-01-18_04h52.39.382,GuessTheSound,2020.2.10,MacIntel,60,,,1,0,0.183755,0,69,69,69,1,,
,,,,,,,,,,,,,,Initial/Doubled/Coin_A.wav,3,5fa1a5d5c838ab1b4d1516de,001,2021-01-18_04h52.39.382,GuessTheSound,2020.2.10,MacIntel,60,,,2,0,0.40275,0,70,70,70,1,,
,,,,,,,,,,,,,,Test/Foils/Buzz.wav,1,5fa1a5d5c838ab1b4d1516de,001,2021-01-18_04h52.39.382,GuessTheSound,2020.2.10,MacIntel,60,,,1,1,0.06654,0,71,71,71,1,,
,,,,,,,,,,,,,,Initial/NoRepeat/Droplet_B.wav,3,5fa1a5d5c838ab1b4d1516de,001,2021-01-18_04h52.39.382,GuessTheSound,2020.2.10,MacIntel,60,,,2,0,0.533995,0,72,72,72,1,,
,,,,,,,,,,,,,,Initial/Doubled/Guitar_A.wav,3,5fa1a5d5c838ab1b4d1516de,001,2021-01-18_04h52.39.382,GuessTheSound,2020.2.10,MacIntel,60,,,2,0,0.233465,0,73,73,73,1,,
,,,,,,,,,,,,,,Initial/NoRepeat/Toilet_B.wav,1,5fa1a5d5c838ab1b4d1516de,001,2021-01-18_04h52.39.382,GuessTheSound,2020.2.10,MacIntel,60,,,1,1,0.050085,0,74,74,74,1,,
,,,,,,,,,,,,,,Dog_D.wav,2,5fa1a5d5c838ab1b4d1516de,001,2021-01-18_04h52.39.382,GuessTheSound,2020.2.10,MacIntel,60,,,2,1,0.284745,0,75,75,75,1,,
,,,,,,,,,,,,,,Initial/Doubled/Clap_A.wav,1,5fa1a5d5c838ab1b4d1516de,001,2021-01-18_04h52.39.382,GuessTheSound,2020.2.10,MacIntel,60,,,1,1,0.033785,0,76,76,76,1,,
,,,,,,,,,,,,,,Test/Foils/PaperRip.wav,1,5fa1a5d5c838ab1b4d1516de,001,2021-01-18_04h52.39.382,GuessTheSound,2020.2.10,MacIntel,60,,,1,1,0.41743,0,77,77,77,1,,
,,,,,,,,,,,,,,Test/Foils/Wind_B.wav,1,5fa1a5d5c838ab1b4d1516de,001,2021-01-18_04h52.39.382,GuessTheSound,2020.2.10,MacIntel,60,,,1,1,0.589865,0,78,78,78,1,,
,,,,,,,,,,,,,,Initial/NoRepeat/Helicopter_A.wav,1,5fa1a5d5c838ab1b4d1516de,001,2021-01-18_04h52.39.382,GuessTheSound,2020.2.10,MacIntel,60,,,1,1,0.253425,0,79,79,79,1,,
,,,,,,,,,,,,,,Initial/NoRepeat/Goat_B.wav,3,5fa1a5d5c838ab1b4d1516de,001,2021-01-18_04h52.39.382,GuessTheSound,2020.2.10,MacIntel,60,,,2,0,0.16838,0,80,80,80,1,,
,,,,,,,,,,,,,,Coin_B.wav,2,5fa1a5d5c838ab1b4d1516de,001,2021-01-18_04h52.39.382,GuessTheSound,2020.2.10,MacIntel,60,,,1,0,6.06856,0,81,81,81,1,,
,,,,,,,,,,,,,,Test/Foils/Bullfrog.wav,3,5fa1a5d5c838ab1b4d1516de,001,2021-01-18_04h52.39.382,GuessTheSound,2020.2.10,MacIntel,60,,,2,0,0.000895,0,82,82,82,1,,
,,,,,,,,,,,,,,Initial/NoRepeat/Thunder_A.wav,3,5fa1a5d5c838ab1b4d1516de,001,2021-01-18_04h52.39.382,GuessTheSound,2020.2.10,MacIntel,60,,,2,0,0.21717,0,83,83,83,1,,
,,,,,,,,,,,,,,Initial/NoRepeat/Faucet_A.wav,3,5fa1a5d5c838ab1b4d1516de,001,2021-01-18_04h52.39.382,GuessTheSound,2020.2.10,MacIntel,60,,,2,0,0.21752,0,84,84,84,1,,
,,,,,,,,,,,,,,Initial/Repeat/Phone_A.wav,3,5fa1a5d5c838ab1b4d1516de,001,2021-01-18_04h52.39.382,GuessTheSound,2020.2.10,MacIntel,60,,,2,0,4.618735,0,85,85,85,1,,
,,,,,,,,,,,,,,Test/Foils/PaperRip.wav,1,5fa1a5d5c838ab1b4d1516de,001,2021-01-18_04h52.39.382,GuessTheSound,2020.2.10,MacIntel,60,,,1,1,0.301745,0,86,86,86,1,,
,,,,,,,,,,,,,,Initial/Doubled/Growl_A.wav,3,5fa1a5d5c838ab1b4d1516de,001,2021-01-18_04h52.39.382,GuessTheSound,2020.2.10,MacIntel,60,,,2,0,0.10219,0,87,87,87,1,,
,,,,,,,,,,,,,,Initial/Repeat/IceDrop.wav,3,5fa1a5d5c838ab1b4d1516de,001,2021-01-18_04h52.39.382,GuessTheSound,2020.2.10,MacIntel,60,,,2,0,1.940495,0,88,88,88,1,,
,,,,,,,,,,,,,,Goat_A.wav,2,5fa1a5d5c838ab1b4d1516de,001,2021-01-18_04h52.39.382,GuessTheSound,2020.2.10,MacIntel,60,,,2,1,1.201945,0,89,89,89,1,,
,,,,,,,,,,,,,,Coin_C.wav,2,5fa1a5d5c838ab1b4d1516de,001,2021-01-18_04h52.39.382,GuessTheSound,2020.2.10,MacIntel,60,,,2,1,4.168845,0,90,90,90,1,,
,,,,,,,,,,,,,,Initial/Repeat/Whistle_A.wav,3,5fa1a5d5c838ab1b4d1516de,001,2021-01-18_04h52.39.382,GuessTheSound,2020.2.10,MacIntel,60,,,2,0,0.804105,0,91,91,91,1,,
,,,,,,,,,,,,,,Initial/NoRepeat/Puff_A.wav,3,5fa1a5d5c838ab1b4d1516de,001,2021-01-18_04h52.39.382,GuessTheSound,2020.2.10,MacIntel,60,,,2,0,0.50278,0,92,92,92,1,,
,,,,,,,,,,,,,,Test/Foils/Bullfrog.wav,1,5fa1a5d5c838ab1b4d1516de,001,2021-01-18_04h52.39.382,GuessTheSound,2020.2.10,MacIntel,60,,,1,1,0.045395,0,93,93,93,1,,
,,,,,,,,,,,,,,Phone_C.wav,2,5fa1a5d5c838ab1b4d1516de,001,2021-01-18_04h52.39.382,GuessTheSound,2020.2.10,MacIntel,60,,,1,0,0.249475,0,94,94,94,1,,
,,,,,,,,,,,,,,Initial/NoRepeat/Footsteps_B.wav,3,5fa1a5d5c838ab1b4d1516de,001,2021-01-18_04h52.39.382,GuessTheSound,2020.2.10,MacIntel,60,,,2,0,0.15006,0,95,95,95,1,,
,,,,,,,,,,,,,,Growl_B.wav,2,5fa1a5d5c838ab1b4d1516de,001,2021-01-18_04h52.39.382,GuessTheSound,2020.2.10,MacIntel,60,,,1,0,0.201495,0,96,96,96,1,,
,,,,,,,,,,,,,,Initial/NoRepeat/Thunder_A.wav,1,5fa1a5d5c838ab1b4d1516de,001,2021-01-18_04h52.39.382,GuessTheSound,2020.2.10,MacIntel,60,,,1,1,0.10237,0,97,97,97,1,,
,,,,,,,,,,,,,,Initial/Repeat/IceDrop.wav,1,5fa1a5d5c838ab1b4d1516de,001,2021-01-18_04h52.39.382,GuessTheSound,2020.2.10,MacIntel,60,,,1,1,0.59199,0,98,98,98,1,,
,,,,,,,,,,,,,,Goat_C.wav,2,5fa1a5d5c838ab1b4d1516de,001,2021-01-18_04h52.39.382,GuessTheSound,2020.2.10,MacIntel,60,,,1,0,0.20155,0,99,99,99,1,,
,,,,,,,,,,,,,,Initial/NoRepeat/Faucet_A.wav,1,5fa1a5d5c838ab1b4d1516de,001,2021-01-18_04h52.39.382,GuessTheSound,2020.2.10,MacIntel,60,,,1,1,0.01668,0,100,100,100,1,,
,,,,,,,,,,,,,,Whistle_B.wav,2,5fa1a5d5c838ab1b4d1516de,001,2021-01-18_04h52.39.382,GuessTheSound,2020.2.10,MacIntel,60,,,1,0,0.167555,0,101,101,101,1,,
,,,,,,,,,,,,,,Growl_C.wav,2,5fa1a5d5c838ab1b4d1516de,001,2021-01-18_04h52.39.382,GuessTheSound,2020.2.10,MacIntel,60,,,2,1,0.303585,0,102,102,102,1,,
,,,,,,,,,,,,,,Phone_D.wav,2,5fa1a5d5c838ab1b4d1516de,001,2021-01-18_04h52.39.382,GuessTheSound,2020.2.10,MacIntel,60,,,1,0,0.050395,0,103,103,103,1,,
,,,,,,,,,,,,,,Test/Foils/Bullfrog.wav,1,5fa1a5d5c838ab1b4d1516de,001,2021-01-18_04h52.39.382,GuessTheSound,2020.2.10,MacIntel,60,,,1,1,0.282535,0,104,104,104,1,,
,,,,,,,,,,,,,,Initial/Repeat/IceDrop.wav,1,5fa1a5d5c838ab1b4d1516de,001,2021-01-18_04h52.39.382,GuessTheSound,2020.2.10,MacIntel,60,,,1,1,0.22021,0,105,105,105,1,,
,,,,,,,,,,,,,,Initial/NoRepeat/Thunder_A.wav,1,5fa1a5d5c838ab1b4d1516de,001,2021-01-18_04h52.39.382,GuessTheSound,2020.2.10,MacIntel,60,,,1,1,0.1507,0,106,106,106,1,,
,,,,,,,,,,,,,,Whistle_C.wav,2,5fa1a5d5c838ab1b4d1516de,001,2021-01-18_04h52.39.382,GuessTheSound,2020.2.10,MacIntel,60,,,1,0,0.300755,0,107,107,107,1,,
,,,,,,,,,,,,,,Initial/NoRepeat/Faucet_A.wav,1,5fa1a5d5c838ab1b4d1516de,001,2021-01-18_04h52.39.382,GuessTheSound,2020.2.10,MacIntel,60,,,1,1,0.16858,0,108,108,108,1,,
,,,,,,,,,,,,,,,,5fa1a5d5c838ab1b4d1516de,001,2021-01-18_04h52.39.382,GuessTheSound,2020.2.10,MacIntel,60,,,,,,,,,,,space,18.950695
