VolumeContinueKey.keys,VolumeContinueKey.rt,HeadphoneContinueKey.keys,HeadphoneContinueKey.rt,CheckResp.keys,CheckResp.corr,CheckResp.rt,trials_2.thisRepN,trials_2.thisTrialN,trials_2.thisN,trials_2.thisIndex,trials_2.ran,File,Correct,participant,session,date,expName,psychopyVersion,OS,frameRate,ContinueResp.keys,ContinueResp.rt,Wel2ContinueKey.keys,Wel2ContinueKey.rt,WelcomeContinueKey2.keys,WelcomeContinueKey2.rt,Practice_resp.keys,Practice_resp.corr,Practice_resp.rt,PracticeTrials.thisRepN,PracticeTrials.thisTrialN,PracticeTrials.thisN,PracticeTrials.thisIndex,PracticeTrials.ran,SoundFile5,Correct2,Type,StartTast.keys,StartTast.rt,MSTResp.keys,MSTResp.corr,MSTResp.rt,trials.thisRepN,trials.thisTrialN,trials.thisN,trials.thisIndex,trials.ran,ExitKey.keys,ExitKey.rt
space,13.653075,space,17.76325,2,1,4.569415,0,0,0,3,1,Headphone/t2_2.wav,2,5fb1ccf448fe0270bbe2bc7a,001,2021-02-19_23h46.21.830,GuessTheSound,2020.2.10,Win32,60,,,,,,,,,,,,,,,,,,,,,,,,,,,,,
,,,,2,1,0.333455,0,1,1,2,1,Headphone/t2_1.wav,2,5fb1ccf448fe0270bbe2bc7a,001,2021-02-19_23h46.21.830,GuessTheSound,2020.2.10,Win32,60,,,,,,,,,,,,,,,,,,,,,,,,,,,,,
,,,,3,1,0.49969,0,2,2,5,1,Headphone/t3_2.wav,3,5fb1ccf448fe0270bbe2bc7a,001,2021-02-19_23h46.21.830,GuessTheSound,2020.2.10,Win32,60,,,,,,,,,,,,,,,,,,,,,,,,,,,,,
,,,,3,1,0.406705,0,3,3,4,1,Headphone/t3_1.wav,3,5fb1ccf448fe0270bbe2bc7a,001,2021-02-19_23h46.21.830,GuessTheSound,2020.2.10,Win32,60,,,,,,,,,,,,,,,,,,,,,,,,,,,,,
,,,,1,1,0.890965,0,4,4,1,1,Headphone/t1_2.wav,1,5fb1ccf448fe0270bbe2bc7a,001,2021-02-19_23h46.21.830,GuessTheSound,2020.2.10,Win32,60,,,,,,,,,,,,,,,,,,,,,,,,,,,,,
,,,,1,1,0.304285,0,5,5,0,1,Headphone/t1_1.wav,1,5fb1ccf448fe0270bbe2bc7a,001,2021-02-19_23h46.21.830,GuessTheSound,2020.2.10,Win32,60,,,,,,,,,,,,,,,,,,,,,,,,,,,,,
,,,,,,,,,,,,,2,5fb1ccf448fe0270bbe2bc7a,001,2021-02-19_23h46.21.830,GuessTheSound,2020.2.10,Win32,60,space,78.534415,space,2.037865,space,9.8199,3,1,13.22873,0,0,0,0,1,Practice/Seagull_A.wav,3,NEW,,,,,,,,,,,,
,,,,,,,,,,,,,2,5fb1ccf448fe0270bbe2bc7a,001,2021-02-19_23h46.21.830,GuessTheSound,2020.2.10,Win32,60,,,,,,,3,1,2.36389,0,1,1,1,1,Practice/Skid_B.wav,3,NEW,,,,,,,,,,,,
,,,,,,,,,,,,,1,5fb1ccf448fe0270bbe2bc7a,001,2021-02-19_23h46.21.830,GuessTheSound,2020.2.10,Win32,60,,,,,,,1,1,2.370635,0,2,2,2,1,Practice/Seagull_A.wav,1,OLD,,,,,,,,,,,,
,,,,,,,,,,,,,2,5fb1ccf448fe0270bbe2bc7a,001,2021-02-19_23h46.21.830,GuessTheSound,2020.2.10,Win32,60,,,,,,,3,1,1.723785,0,3,3,3,1,Practice/Gargle_A.wav,3,NEW,,,,,,,,,,,,
,,,,,,,,,,,,,2,5fb1ccf448fe0270bbe2bc7a,001,2021-02-19_23h46.21.830,GuessTheSound,2020.2.10,Win32,60,,,,,,,2,1,1.303055,0,4,4,4,1,Practice/Gargle_B.wav,2,SIMILAR,,,,,,,,,,,,
,,,,,,,,,,,,,2,5fb1ccf448fe0270bbe2bc7a,001,2021-02-19_23h46.21.830,GuessTheSound,2020.2.10,Win32,60,,,,,,,,,,,,,,,Initial/NoRepeat/Elephant_A.wav,3,NEW,space,14.364045,3,1,8.28757,0,0,0,0,1,,
,,,,,,,,,,,,,2,5fb1ccf448fe0270bbe2bc7a,001,2021-02-19_23h46.21.830,GuessTheSound,2020.2.10,Win32,60,,,,,,,,,,,,,,,Initial/NoRepeat/Thunder_A.wav,3,NEW,,,3,1,0.64955,0,1,1,1,1,,
,,,,,,,,,,,,,2,5fb1ccf448fe0270bbe2bc7a,001,2021-02-19_23h46.21.830,GuessTheSound,2020.2.10,Win32,60,,,,,,,,,,,,,,,Test/Lures/Chime_B.wav,3,NEW,,,3,1,0.786385,0,2,2,2,1,,
,,,,,,,,,,,,,2,5fb1ccf448fe0270bbe2bc7a,001,2021-02-19_23h46.21.830,GuessTheSound,2020.2.10,Win32,60,,,,,,,,,,,,,,,Initial/NoRepeat/Toilet_B.wav,3,NEW,,,3,1,0.489175,0,3,3,3,1,,
,,,,,,,,,,,,,2,5fb1ccf448fe0270bbe2bc7a,001,2021-02-19_23h46.21.830,GuessTheSound,2020.2.10,Win32,60,,,,,,,,,,,,,,,Test/Foils/Typing.wav,3,NEW,,,3,1,0.571335,0,4,4,4,1,,
,,,,,,,,,,,,,2,5fb1ccf448fe0270bbe2bc7a,001,2021-02-19_23h46.21.830,GuessTheSound,2020.2.10,Win32,60,,,,,,,,,,,,,,,Initial/Repeat/Pour.wav,3,NEW,,,3,1,0.58329,0,5,5,5,1,,
,,,,,,,,,,,,,2,5fb1ccf448fe0270bbe2bc7a,001,2021-02-19_23h46.21.830,GuessTheSound,2020.2.10,Win32,60,,,,,,,,,,,,,,,Initial/NoRepeat/Sleighbells_B.wav,3,NEW,,,3,1,0.775,0,6,6,6,1,,
,,,,,,,,,,,,,1,5fb1ccf448fe0270bbe2bc7a,001,2021-02-19_23h46.21.830,GuessTheSound,2020.2.10,Win32,60,,,,,,,,,,,,,,,Initial/NoRepeat/Thunder_A.wav,1,OLD,,,2,0,0.57279,0,7,7,7,1,,
,,,,,,,,,,,,,2,5fb1ccf448fe0270bbe2bc7a,001,2021-02-19_23h46.21.830,GuessTheSound,2020.2.10,Win32,60,,,,,,,,,,,,,,,Initial/Repeat/Buzz.wav,3,NEW,,,3,1,0.59114,0,8,8,8,1,,
,,,,,,,,,,,,,2,5fb1ccf448fe0270bbe2bc7a,001,2021-02-19_23h46.21.830,GuessTheSound,2020.2.10,Win32,60,,,,,,,,,,,,,,,Initial/NoRepeat/Baby_B.wav,3,NEW,,,3,1,0.485275,0,9,9,9,1,,
,,,,,,,,,,,,,2,5fb1ccf448fe0270bbe2bc7a,001,2021-02-19_23h46.21.830,GuessTheSound,2020.2.10,Win32,60,,,,,,,,,,,,,,,Initial/NoRepeat/Mosquito_B.wav,3,NEW,,,3,1,0.53235,0,10,10,10,1,,
,,,,,,,,,,,,,1,5fb1ccf448fe0270bbe2bc7a,001,2021-02-19_23h46.21.830,GuessTheSound,2020.2.10,Win32,60,,,,,,,,,,,,,,,Test/Foils/Typing.wav,1,OLD,,,1,1,0.3712,0,11,11,11,1,,
,,,,,,,,,,,,,2,5fb1ccf448fe0270bbe2bc7a,001,2021-02-19_23h46.21.830,GuessTheSound,2020.2.10,Win32,60,,,,,,,,,,,,,,,Initial/Doubled/Chime_A.wav,2,SIMILAR,,,2,1,2.17241,0,12,12,12,1,,
,,,,,,,,,,,,,2,5fb1ccf448fe0270bbe2bc7a,001,2021-02-19_23h46.21.830,GuessTheSound,2020.2.10,Win32,60,,,,,,,,,,,,,,,Test/Foils/DialTone.wav,3,NEW,,,3,1,1.63613,0,13,13,13,1,,
,,,,,,,,,,,,,2,5fb1ccf448fe0270bbe2bc7a,001,2021-02-19_23h46.21.830,GuessTheSound,2020.2.10,Win32,60,,,,,,,,,,,,,,,Elephant_B.wav,2,SIMILAR,,,2,1,1.284885,0,14,14,14,1,,
,,,,,,,,,,,,,2,5fb1ccf448fe0270bbe2bc7a,001,2021-02-19_23h46.21.830,GuessTheSound,2020.2.10,Win32,60,,,,,,,,,,,,,,,Initial/Doubled/Writing_A.wav,3,NEW,,,3,1,0.382695,0,15,15,15,1,,
,,,,,,,,,,,,,2,5fb1ccf448fe0270bbe2bc7a,001,2021-02-19_23h46.21.830,GuessTheSound,2020.2.10,Win32,60,,,,,,,,,,,,,,,Initial/NoRepeat/Faucet_A.wav,3,NEW,,,2,0,1.54855,0,16,16,16,1,,
,,,,,,,,,,,,,1,5fb1ccf448fe0270bbe2bc7a,001,2021-02-19_23h46.21.830,GuessTheSound,2020.2.10,Win32,60,,,,,,,,,,,,,,,Initial/NoRepeat/Toilet_B.wav,1,OLD,,,1,1,0.39952,0,17,17,17,1,,
,,,,,,,,,,,,,1,5fb1ccf448fe0270bbe2bc7a,001,2021-02-19_23h46.21.830,GuessTheSound,2020.2.10,Win32,60,,,,,,,,,,,,,,,Initial/NoRepeat/Sleighbells_B.wav,1,OLD,,,1,1,0.31614,0,18,18,18,1,,
,,,,,,,,,,,,,2,5fb1ccf448fe0270bbe2bc7a,001,2021-02-19_23h46.21.830,GuessTheSound,2020.2.10,Win32,60,,,,,,,,,,,,,,,Test/Foils/Wind_B.wav,3,NEW,,,1,0,0.319705,0,19,19,19,1,,
,,,,,,,,,,,,,2,5fb1ccf448fe0270bbe2bc7a,001,2021-02-19_23h46.21.830,GuessTheSound,2020.2.10,Win32,60,,,,,,,,,,,,,,,Pour_C.wav,2,SIMILAR,,,1,0,0.507575,0,20,20,20,1,,
,,,,,,,,,,,,,1,5fb1ccf448fe0270bbe2bc7a,001,2021-02-19_23h46.21.830,GuessTheSound,2020.2.10,Win32,60,,,,,,,,,,,,,,,Initial/Repeat/Buzz.wav,1,OLD,,,1,1,0.37473,0,21,21,21,1,,
,,,,,,,,,,,,,2,5fb1ccf448fe0270bbe2bc7a,001,2021-02-19_23h46.21.830,GuessTheSound,2020.2.10,Win32,60,,,,,,,,,,,,,,,Baby_A.wav,2,SIMILAR,,,2,1,0.3879,0,22,22,22,1,,
,,,,,,,,,,,,,2,5fb1ccf448fe0270bbe2bc7a,001,2021-02-19_23h46.21.830,GuessTheSound,2020.2.10,Win32,60,,,,,,,,,,,,,,,Writing_C.wav,2,SIMILAR,,,2,1,0.382165,0,23,23,23,1,,
,,,,,,,,,,,,,1,5fb1ccf448fe0270bbe2bc7a,001,2021-02-19_23h46.21.830,GuessTheSound,2020.2.10,Win32,60,,,,,,,,,,,,,,,Initial/NoRepeat/Mosquito_B.wav,1,OLD,,,2,0,0.36933,0,24,24,24,1,,
,,,,,,,,,,,,,2,5fb1ccf448fe0270bbe2bc7a,001,2021-02-19_23h46.21.830,GuessTheSound,2020.2.10,Win32,60,,,,,,,,,,,,,,,Initial/Doubled/Cough_A.wav,3,NEW,,,2,0,0.60447,0,25,25,25,1,,
,,,,,,,,,,,,,1,5fb1ccf448fe0270bbe2bc7a,001,2021-02-19_23h46.21.830,GuessTheSound,2020.2.10,Win32,60,,,,,,,,,,,,,,,Test/Foils/DialTone.wav,1,OLD,,,1,1,0.408165,0,26,26,26,1,,
,,,,,,,,,,,,,2,5fb1ccf448fe0270bbe2bc7a,001,2021-02-19_23h46.21.830,GuessTheSound,2020.2.10,Win32,60,,,,,,,,,,,,,,,Test/Foils/Heartbeat.wav,3,NEW,,,2,0,2.403675,0,27,27,27,1,,
,,,,,,,,,,,,,2,5fb1ccf448fe0270bbe2bc7a,001,2021-02-19_23h46.21.830,GuessTheSound,2020.2.10,Win32,60,,,,,,,,,,,,,,,Initial/Repeat/IceDrop.wav,3,NEW,,,2,0,1.553415,0,28,28,28,1,,
,,,,,,,,,,,,,2,5fb1ccf448fe0270bbe2bc7a,001,2021-02-19_23h46.21.830,GuessTheSound,2020.2.10,Win32,60,,,,,,,,,,,,,,,Bird_B.wav,3,NEW,,,3,1,0.486525,0,29,29,29,1,,
,,,,,,,,,,,,,2,5fb1ccf448fe0270bbe2bc7a,001,2021-02-19_23h46.21.830,GuessTheSound,2020.2.10,Win32,60,,,,,,,,,,,,,,,Initial/NoRepeat/Puff_A.wav,3,NEW,,,3,1,0.383945,0,30,30,30,1,,
,,,,,,,,,,,,,2,5fb1ccf448fe0270bbe2bc7a,001,2021-02-19_23h46.21.830,GuessTheSound,2020.2.10,Win32,60,,,,,,,,,,,,,,,Faucet_B.wav,2,SIMILAR,,,2,1,2.0009,0,31,31,31,1,,
,,,,,,,,,,,,,2,5fb1ccf448fe0270bbe2bc7a,001,2021-02-19_23h46.21.830,GuessTheSound,2020.2.10,Win32,60,,,,,,,,,,,,,,,Initial/NoRepeat/Duck_A.wav,3,NEW,,,3,1,0.937575,0,32,32,32,1,,
,,,,,,,,,,,,,2,5fb1ccf448fe0270bbe2bc7a,001,2021-02-19_23h46.21.830,GuessTheSound,2020.2.10,Win32,60,,,,,,,,,,,,,,,Initial/Doubled/Laugh_A.wav,3,NEW,,,3,1,0.653335,0,33,33,33,1,,
,,,,,,,,,,,,,1,5fb1ccf448fe0270bbe2bc7a,001,2021-02-19_23h46.21.830,GuessTheSound,2020.2.10,Win32,60,,,,,,,,,,,,,,,Test/Foils/Wind_B.wav,1,OLD,,,1,1,0.46661,0,34,34,34,1,,
,,,,,,,,,,,,,2,5fb1ccf448fe0270bbe2bc7a,001,2021-02-19_23h46.21.830,GuessTheSound,2020.2.10,Win32,60,,,,,,,,,,,,,,,Initial/Doubled/Chicken_A.wav,3,NEW,,,3,1,0.69886,0,35,35,35,1,,
,,,,,,,,,,,,,2,5fb1ccf448fe0270bbe2bc7a,001,2021-02-19_23h46.21.830,GuessTheSound,2020.2.10,Win32,60,,,,,,,,,,,,,,,Test/Lures/Guitar_B.wav,3,NEW,,,3,1,0.585495,0,36,36,36,1,,
,,,,,,,,,,,,,2,5fb1ccf448fe0270bbe2bc7a,001,2021-02-19_23h46.21.830,GuessTheSound,2020.2.10,Win32,60,,,,,,,,,,,,,,,Initial/Repeat/Cello.wav,3,NEW,,,3,1,0.44875,0,37,37,37,1,,
,,,,,,,,,,,,,1,5fb1ccf448fe0270bbe2bc7a,001,2021-02-19_23h46.21.830,GuessTheSound,2020.2.10,Win32,60,,,,,,,,,,,,,,,Test/Foils/Heartbeat.wav,1,OLD,,,1,1,0.323285,0,38,38,38,1,,
,,,,,,,,,,,,,2,5fb1ccf448fe0270bbe2bc7a,001,2021-02-19_23h46.21.830,GuessTheSound,2020.2.10,Win32,60,,,,,,,,,,,,,,,Initial/Repeat/Airplane_B.wav,3,NEW,,,3,1,1.93655,0,39,39,39,1,,
,,,,,,,,,,,,,2,5fb1ccf448fe0270bbe2bc7a,001,2021-02-19_23h46.21.830,GuessTheSound,2020.2.10,Win32,60,,,,,,,,,,,,,,,Cough_E.wav,2,SIMILAR,,,2,1,0.35051,0,40,40,40,1,,
,,,,,,,,,,,,,2,5fb1ccf448fe0270bbe2bc7a,001,2021-02-19_23h46.21.830,GuessTheSound,2020.2.10,Win32,60,,,,,,,,,,,,,,,Test/Foils/Bird.wav,2,SIMILAR,,,2,1,0.95436,0,41,41,41,1,,
,,,,,,,,,,,,,2,5fb1ccf448fe0270bbe2bc7a,001,2021-02-19_23h46.21.830,GuessTheSound,2020.2.10,Win32,60,,,,,,,,,,,,,,,Initial/Repeat/Trumpet_B.wav,3,NEW,,,3,1,0.085235,0,42,42,42,1,,
,,,,,,,,,,,,,1,5fb1ccf448fe0270bbe2bc7a,001,2021-02-19_23h46.21.830,GuessTheSound,2020.2.10,Win32,60,,,,,,,,,,,,,,,Initial/Repeat/IceDrop.wav,1,OLD,,,1,1,0.370365,0,43,43,43,1,,
,,,,,,,,,,,,,2,5fb1ccf448fe0270bbe2bc7a,001,2021-02-19_23h46.21.830,GuessTheSound,2020.2.10,Win32,60,,,,,,,,,,,,,,,Initial/Repeat/Sneeze_B.wav,3,NEW,,,3,1,1.118105,0,44,44,44,1,,
,,,,,,,,,,,,,1,5fb1ccf448fe0270bbe2bc7a,001,2021-02-19_23h46.21.830,GuessTheSound,2020.2.10,Win32,60,,,,,,,,,,,,,,,Initial/NoRepeat/Puff_A.wav,1,OLD,,,1,1,0.38976,0,45,45,45,1,,
,,,,,,,,,,,,,2,5fb1ccf448fe0270bbe2bc7a,001,2021-02-19_23h46.21.830,GuessTheSound,2020.2.10,Win32,60,,,,,,,,,,,,,,,Snore_A.wav,3,NEW,,,3,1,0.60179,0,46,46,46,1,,
,,,,,,,,,,,,,1,5fb1ccf448fe0270bbe2bc7a,001,2021-02-19_23h46.21.830,GuessTheSound,2020.2.10,Win32,60,,,,,,,,,,,,,,,Test/Lures/Guitar_B.wav,1,OLD,,,1,1,0.818205,0,47,47,47,1,,
,,,,,,,,,,,,,2,5fb1ccf448fe0270bbe2bc7a,001,2021-02-19_23h46.21.830,GuessTheSound,2020.2.10,Win32,60,,,,,,,,,,,,,,,Initial/Doubled/Cat_A.wav,3,NEW,,,3,1,2.03138,0,48,48,48,1,,
,,,,,,,,,,,,,2,5fb1ccf448fe0270bbe2bc7a,001,2021-02-19_23h46.21.830,GuessTheSound,2020.2.10,Win32,60,,,,,,,,,,,,,,,Initial/Repeat/Whistle_A.wav,3,NEW,,,1,0,0.53571,0,49,49,49,1,,
,,,,,,,,,,,,,2,5fb1ccf448fe0270bbe2bc7a,001,2021-02-19_23h46.21.830,GuessTheSound,2020.2.10,Win32,60,,,,,,,,,,,,,,,Duck_B.wav,2,SIMILAR,,,1,0,2.566985,0,50,50,50,1,,
,,,,,,,,,,,,,2,5fb1ccf448fe0270bbe2bc7a,001,2021-02-19_23h46.21.830,GuessTheSound,2020.2.10,Win32,60,,,,,,,,,,,,,,,Laugh_D.wav,2,SIMILAR,,,2,1,0.316075,0,51,51,51,1,,
,,,,,,,,,,,,,1,5fb1ccf448fe0270bbe2bc7a,001,2021-02-19_23h46.21.830,GuessTheSound,2020.2.10,Win32,60,,,,,,,,,,,,,,,Initial/Doubled/Chicken_A.wav,1,OLD,,,1,1,1.4393,0,52,52,52,1,,
,,,,,,,,,,,,,1,5fb1ccf448fe0270bbe2bc7a,001,2021-02-19_23h46.21.830,GuessTheSound,2020.2.10,Win32,60,,,,,,,,,,,,,,,Initial/Repeat/Cello.wav,1,OLD,,,1,1,0.37286,0,53,53,53,1,,
,,,,,,,,,,,,,2,5fb1ccf448fe0270bbe2bc7a,001,2021-02-19_23h46.21.830,GuessTheSound,2020.2.10,Win32,60,,,,,,,,,,,,,,,Test/Foils/Slurp.wav,3,NEW,,,3,1,0.45443,0,54,54,54,1,,
,,,,,,,,,,,,,2,5fb1ccf448fe0270bbe2bc7a,001,2021-02-19_23h46.21.830,GuessTheSound,2020.2.10,Win32,60,,,,,,,,,,,,,,,Initial/Doubled/Chomp_A.wav,3,NEW,,,3,1,0.371735,0,55,55,55,1,,
,,,,,,,,,,,,,1,5fb1ccf448fe0270bbe2bc7a,001,2021-02-19_23h46.21.830,GuessTheSound,2020.2.10,Win32,60,,,,,,,,,,,,,,,Initial/Repeat/Airplane_B.wav,1,OLD,,,1,1,0.7331,0,56,56,56,1,,
,,,,,,,,,,,,,2,5fb1ccf448fe0270bbe2bc7a,001,2021-02-19_23h46.21.830,GuessTheSound,2020.2.10,Win32,60,,,,,,,,,,,,,,,Initial/Doubled/Bubbles_A.wav,3,NEW,,,3,1,0.3513,0,57,57,57,1,,
,,,,,,,,,,,,,1,5fb1ccf448fe0270bbe2bc7a,001,2021-02-19_23h46.21.830,GuessTheSound,2020.2.10,Win32,60,,,,,,,,,,,,,,,Initial/Repeat/Trumpet_B.wav,1,OLD,,,1,1,0.702055,0,58,58,58,1,,
,,,,,,,,,,,,,2,5fb1ccf448fe0270bbe2bc7a,001,2021-02-19_23h46.21.830,GuessTheSound,2020.2.10,Win32,60,,,,,,,,,,,,,,,Initial/Repeat/Cup.wav,3,NEW,,,3,1,1.099995,0,59,59,59,1,,
,,,,,,,,,,,,,2,5fb1ccf448fe0270bbe2bc7a,001,2021-02-19_23h46.21.830,GuessTheSound,2020.2.10,Win32,60,,,,,,,,,,,,,,,Snore_C.wav,2,SIMILAR,,,2,1,0.717795,0,60,60,60,1,,
,,,,,,,,,,,,,2,5fb1ccf448fe0270bbe2bc7a,001,2021-02-19_23h46.21.830,GuessTheSound,2020.2.10,Win32,60,,,,,,,,,,,,,,,Test/Foils/Airhorn.wav,3,NEW,,,3,1,0.40924,0,61,61,61,1,,
,,,,,,,,,,,,,2,5fb1ccf448fe0270bbe2bc7a,001,2021-02-19_23h46.21.830,GuessTheSound,2020.2.10,Win32,60,,,,,,,,,,,,,,,Whistle_C.wav,2,SIMILAR,,,2,1,0.58431,0,62,62,62,1,,
,,,,,,,,,,,,,1,5fb1ccf448fe0270bbe2bc7a,001,2021-02-19_23h46.21.830,GuessTheSound,2020.2.10,Win32,60,,,,,,,,,,,,,,,Initial/Repeat/Sneeze_B.wav,1,OLD,,,1,1,0.82181,0,63,63,63,1,,
,,,,,,,,,,,,,1,5fb1ccf448fe0270bbe2bc7a,001,2021-02-19_23h46.21.830,GuessTheSound,2020.2.10,Win32,60,,,,,,,,,,,,,,,Initial/Doubled/Cat_A.wav,1,OLD,,,1,1,0.783675,0,64,64,64,1,,
,,,,,,,,,,,,,2,5fb1ccf448fe0270bbe2bc7a,001,2021-02-19_23h46.21.830,GuessTheSound,2020.2.10,Win32,60,,,,,,,,,,,,,,,Phone_D.wav,3,NEW,,,3,1,0.3215,0,65,65,65,1,,
,,,,,,,,,,,,,2,5fb1ccf448fe0270bbe2bc7a,001,2021-02-19_23h46.21.830,GuessTheSound,2020.2.10,Win32,60,,,,,,,,,,,,,,,Initial/Repeat/Bagpipe.wav,3,NEW,,,3,1,0.52098,0,66,66,66,1,,
,,,,,,,,,,,,,2,5fb1ccf448fe0270bbe2bc7a,001,2021-02-19_23h46.21.830,GuessTheSound,2020.2.10,Win32,60,,,,,,,,,,,,,,,Chomp_C.wav,2,SIMILAR,,,2,1,0.419075,0,67,67,67,1,,
,,,,,,,,,,,,,1,5fb1ccf448fe0270bbe2bc7a,001,2021-02-19_23h46.21.830,GuessTheSound,2020.2.10,Win32,60,,,,,,,,,,,,,,,Test/Foils/Slurp.wav,1,OLD,,,1,1,3.381515,0,68,68,68,1,,
,,,,,,,,,,,,,2,5fb1ccf448fe0270bbe2bc7a,001,2021-02-19_23h46.21.830,GuessTheSound,2020.2.10,Win32,60,,,,,,,,,,,,,,,Test/Foils/Bowlingpins.wav,3,NEW,,,3,1,0.688245,0,69,69,69,1,,
,,,,,,,,,,,,,1,5fb1ccf448fe0270bbe2bc7a,001,2021-02-19_23h46.21.830,GuessTheSound,2020.2.10,Win32,60,,,,,,,,,,,,,,,Initial/Doubled/Bubbles_A.wav,1,OLD,,,2,0,0.68437,0,70,70,70,1,,
,,,,,,,,,,,,,2,5fb1ccf448fe0270bbe2bc7a,001,2021-02-19_23h46.21.830,GuessTheSound,2020.2.10,Win32,60,,,,,,,,,,,,,,,Initial/NoRepeat/Cow.wav,3,NEW,,,3,1,0.46789,0,71,71,71,1,,
,,,,,,,,,,,,,2,5fb1ccf448fe0270bbe2bc7a,001,2021-02-19_23h46.21.830,GuessTheSound,2020.2.10,Win32,60,,,,,,,,,,,,,,,Initial/Doubled/Siren_A.wav,3,NEW,,,3,1,0.45542,0,72,72,72,1,,
,,,,,,,,,,,,,2,5fb1ccf448fe0270bbe2bc7a,001,2021-02-19_23h46.21.830,GuessTheSound,2020.2.10,Win32,60,,,,,,,,,,,,,,,Initial/Repeat/Crow_B.wav,3,NEW,,,2,0,1.11881,0,73,73,73,1,,
,,,,,,,,,,,,,1,5fb1ccf448fe0270bbe2bc7a,001,2021-02-19_23h46.21.830,GuessTheSound,2020.2.10,Win32,60,,,,,,,,,,,,,,,Initial/Repeat/Bagpipe.wav,1,OLD,,,2,0,0.47144,0,74,74,74,1,,
,,,,,,,,,,,,,1,5fb1ccf448fe0270bbe2bc7a,001,2021-02-19_23h46.21.830,GuessTheSound,2020.2.10,Win32,60,,,,,,,,,,,,,,,Initial/Repeat/Cup.wav,1,OLD,,,1,1,0.473395,0,75,75,75,1,,
,,,,,,,,,,,,,2,5fb1ccf448fe0270bbe2bc7a,001,2021-02-19_23h46.21.830,GuessTheSound,2020.2.10,Win32,60,,,,,,,,,,,,,,,Test/Foils/Bullfrog.wav,3,NEW,,,2,0,0.391085,0,76,76,76,1,,
,,,,,,,,,,,,,2,5fb1ccf448fe0270bbe2bc7a,001,2021-02-19_23h46.21.830,GuessTheSound,2020.2.10,Win32,60,,,,,,,,,,,,,,,Initial/Repeat/Phone_A.wav,2,SIMILAR,,,3,0,0.350725,0,77,77,77,1,,
,,,,,,,,,,,,,2,5fb1ccf448fe0270bbe2bc7a,001,2021-02-19_23h46.21.830,GuessTheSound,2020.2.10,Win32,60,,,,,,,,,,,,,,,Initial/Doubled/HairDryer_A.wav,3,NEW,,,1,0,0.29985,0,78,78,78,1,,
,,,,,,,,,,,,,1,5fb1ccf448fe0270bbe2bc7a,001,2021-02-19_23h46.21.830,GuessTheSound,2020.2.10,Win32,60,,,,,,,,,,,,,,,Test/Foils/Airhorn.wav,1,OLD,,,1,1,0.36919,0,79,79,79,1,,
,,,,,,,,,,,,,2,5fb1ccf448fe0270bbe2bc7a,001,2021-02-19_23h46.21.830,GuessTheSound,2020.2.10,Win32,60,,,,,,,,,,,,,,,Initial/Doubled/Cuckoo_A.wav,3,NEW,,,3,1,0.301565,0,80,80,80,1,,
,,,,,,,,,,,,,1,5fb1ccf448fe0270bbe2bc7a,001,2021-02-19_23h46.21.830,GuessTheSound,2020.2.10,Win32,60,,,,,,,,,,,,,,,Initial/NoRepeat/Cow.wav,1,OLD,,,1,1,0.36853,0,81,81,81,1,,
,,,,,,,,,,,,,2,5fb1ccf448fe0270bbe2bc7a,001,2021-02-19_23h46.21.830,GuessTheSound,2020.2.10,Win32,60,,,,,,,,,,,,,,,Initial/NoRepeat/Hammer_A.wav,3,NEW,,,3,1,1.284555,0,82,82,82,1,,
,,,,,,,,,,,,,2,5fb1ccf448fe0270bbe2bc7a,001,2021-02-19_23h46.21.830,GuessTheSound,2020.2.10,Win32,60,,,,,,,,,,,,,,,Initial/NoRepeat/Footsteps_B.wav,3,NEW,,,2,0,1.056445,0,83,83,83,1,,
,,,,,,,,,,,,,2,5fb1ccf448fe0270bbe2bc7a,001,2021-02-19_23h46.21.830,GuessTheSound,2020.2.10,Win32,60,,,,,,,,,,,,,,,Initial/Doubled/Dog_A.wav,3,NEW,,,3,1,0.423965,0,84,84,84,1,,
,,,,,,,,,,,,,1,5fb1ccf448fe0270bbe2bc7a,001,2021-02-19_23h46.21.830,GuessTheSound,2020.2.10,Win32,60,,,,,,,,,,,,,,,Test/Foils/Bowlingpins.wav,1,OLD,,,1,1,0.36865,0,85,85,85,1,,
,,,,,,,,,,,,,2,5fb1ccf448fe0270bbe2bc7a,001,2021-02-19_23h46.21.830,GuessTheSound,2020.2.10,Win32,60,,,,,,,,,,,,,,,Initial/Doubled/Clap_A.wav,3,NEW,,,2,0,1.305445,0,86,86,86,1,,
,,,,,,,,,,,,,2,5fb1ccf448fe0270bbe2bc7a,001,2021-02-19_23h46.21.830,GuessTheSound,2020.2.10,Win32,60,,,,,,,,,,,,,,,Initial/NoRepeat/Fireworks.wav,3,NEW,,,3,1,0.532495,0,87,87,87,1,,
,,,,,,,,,,,,,1,5fb1ccf448fe0270bbe2bc7a,001,2021-02-19_23h46.21.830,GuessTheSound,2020.2.10,Win32,60,,,,,,,,,,,,,,,Test/Foils/Bullfrog.wav,1,OLD,,,1,1,0.276645,0,88,88,88,1,,
,,,,,,,,,,,,,2,5fb1ccf448fe0270bbe2bc7a,001,2021-02-19_23h46.21.830,GuessTheSound,2020.2.10,Win32,60,,,,,,,,,,,,,,,Siren_C.wav,2,SIMILAR,,,2,1,5.71536,0,89,89,89,1,,
,,,,,,,,,,,,,2,5fb1ccf448fe0270bbe2bc7a,001,2021-02-19_23h46.21.830,GuessTheSound,2020.2.10,Win32,60,,,,,,,,,,,,,,,Crow_A.wav,2,SIMILAR,,,2,1,0.68562,0,90,90,90,1,,
,,,,,,,,,,,,,2,5fb1ccf448fe0270bbe2bc7a,001,2021-02-19_23h46.21.830,GuessTheSound,2020.2.10,Win32,60,,,,,,,,,,,,,,,Initial/NoRepeat/Goat_B.wav,3,NEW,,,3,1,0.443695,0,91,91,91,1,,
,,,,,,,,,,,,,1,5fb1ccf448fe0270bbe2bc7a,001,2021-02-19_23h46.21.830,GuessTheSound,2020.2.10,Win32,60,,,,,,,,,,,,,,,Initial/Doubled/HairDryer_A.wav,1,OLD,,,1,1,0.30204,0,92,92,92,1,,
,,,,,,,,,,,,,1,5fb1ccf448fe0270bbe2bc7a,001,2021-02-19_23h46.21.830,GuessTheSound,2020.2.10,Win32,60,,,,,,,,,,,,,,,Initial/Doubled/Cuckoo_A.wav,1,OLD,,,1,1,0.33694,0,93,93,93,1,,
,,,,,,,,,,,,,2,5fb1ccf448fe0270bbe2bc7a,001,2021-02-19_23h46.21.830,GuessTheSound,2020.2.10,Win32,60,,,,,,,,,,,,,,,Initial/Doubled/Coin_A.wav,3,NEW,,,3,1,2.88827,0,94,94,94,1,,
,,,,,,,,,,,,,2,5fb1ccf448fe0270bbe2bc7a,001,2021-02-19_23h46.21.830,GuessTheSound,2020.2.10,Win32,60,,,,,,,,,,,,,,,Initial/Repeat/Howl.wav,3,NEW,,,2,0,1.318,0,95,95,95,1,,
,,,,,,,,,,,,,1,5fb1ccf448fe0270bbe2bc7a,001,2021-02-19_23h46.21.830,GuessTheSound,2020.2.10,Win32,60,,,,,,,,,,,,,,,Initial/NoRepeat/Hammer_A.wav,1,OLD,,,2,0,1.771825,0,96,96,96,1,,
,,,,,,,,,,,,,2,5fb1ccf448fe0270bbe2bc7a,001,2021-02-19_23h46.21.830,GuessTheSound,2020.2.10,Win32,60,,,,,,,,,,,,,,,Initial/NoRepeat/Helicopter_A.wav,3,NEW,,,3,1,0.904925,0,97,97,97,1,,
,,,,,,,,,,,,,2,5fb1ccf448fe0270bbe2bc7a,001,2021-02-19_23h46.21.830,GuessTheSound,2020.2.10,Win32,60,,,,,,,,,,,,,,,Initial/Repeat/ManWhistle.wav,3,NEW,,,3,1,1.14047,0,98,98,98,1,,
,,,,,,,,,,,,,2,5fb1ccf448fe0270bbe2bc7a,001,2021-02-19_23h46.21.830,GuessTheSound,2020.2.10,Win32,60,,,,,,,,,,,,,,,Footsteps_C.wav,2,SIMILAR,,,3,0,0.38926,0,99,99,99,1,,
,,,,,,,,,,,,,2,5fb1ccf448fe0270bbe2bc7a,001,2021-02-19_23h46.21.830,GuessTheSound,2020.2.10,Win32,60,,,,,,,,,,,,,,,Initial/Doubled/Growl_A.wav,3,NEW,,,3,1,0.13969,0,100,100,100,1,,
,,,,,,,,,,,,,2,5fb1ccf448fe0270bbe2bc7a,001,2021-02-19_23h46.21.830,GuessTheSound,2020.2.10,Win32,60,,,,,,,,,,,,,,,Test/Foils/Horse.wav,3,NEW,,,3,1,0.353235,0,101,101,101,1,,
,,,,,,,,,,,,,1,5fb1ccf448fe0270bbe2bc7a,001,2021-02-19_23h46.21.830,GuessTheSound,2020.2.10,Win32,60,,,,,,,,,,,,,,,Initial/Doubled/Clap_A.wav,1,OLD,,,2,0,0.318495,0,102,102,102,1,,
,,,,,,,,,,,,,2,5fb1ccf448fe0270bbe2bc7a,001,2021-02-19_23h46.21.830,GuessTheSound,2020.2.10,Win32,60,,,,,,,,,,,,,,,Dog_C.wav,2,SIMILAR,,,2,1,0.484015,0,103,103,103,1,,
,,,,,,,,,,,,,1,5fb1ccf448fe0270bbe2bc7a,001,2021-02-19_23h46.21.830,GuessTheSound,2020.2.10,Win32,60,,,,,,,,,,,,,,,Initial/NoRepeat/Fireworks.wav,1,OLD,,,2,0,0.61734,0,104,104,104,1,,
,,,,,,,,,,,,,2,5fb1ccf448fe0270bbe2bc7a,001,2021-02-19_23h46.21.830,GuessTheSound,2020.2.10,Win32,60,,,,,,,,,,,,,,,Initial/Repeat/Printer.wav,3,NEW,,,3,1,4.625945,0,105,105,105,1,,
,,,,,,,,,,,,,2,5fb1ccf448fe0270bbe2bc7a,001,2021-02-19_23h46.21.830,GuessTheSound,2020.2.10,Win32,60,,,,,,,,,,,,,,,Test/Foils/Camera.wav,3,NEW,,,3,1,3.223035,0,106,106,106,1,,
,,,,,,,,,,,,,2,5fb1ccf448fe0270bbe2bc7a,001,2021-02-19_23h46.21.830,GuessTheSound,2020.2.10,Win32,60,,,,,,,,,,,,,,,Initial/Doubled/Piano_A.wav,3,NEW,,,3,1,0.87809,0,107,107,107,1,,
,,,,,,,,,,,,,2,5fb1ccf448fe0270bbe2bc7a,001,2021-02-19_23h46.21.830,GuessTheSound,2020.2.10,Win32,60,,,,,,,,,,,,,,,Initial/Repeat/PaperRip.wav,3,NEW,,,3,1,0.29864,0,108,108,108,1,,
,,,,,,,,,,,,,2,5fb1ccf448fe0270bbe2bc7a,001,2021-02-19_23h46.21.830,GuessTheSound,2020.2.10,Win32,60,,,,,,,,,,,,,,,Coin_B.wav,2,SIMILAR,,,3,0,0.288765,0,109,109,109,1,,
,,,,,,,,,,,,,2,5fb1ccf448fe0270bbe2bc7a,001,2021-02-19_23h46.21.830,GuessTheSound,2020.2.10,Win32,60,,,,,,,,,,,,,,,Initial/NoRepeat/Droplet_B.wav,3,NEW,,,2,0,0.24959,0,110,110,110,1,,
,,,,,,,,,,,,,2,5fb1ccf448fe0270bbe2bc7a,001,2021-02-19_23h46.21.830,GuessTheSound,2020.2.10,Win32,60,,,,,,,,,,,,,,,Test/Foils/Steam.wav,3,NEW,,,3,1,0.321265,0,111,111,111,1,,
,,,,,,,,,,,,,1,5fb1ccf448fe0270bbe2bc7a,001,2021-02-19_23h46.21.830,GuessTheSound,2020.2.10,Win32,60,,,,,,,,,,,,,,,Initial/NoRepeat/Helicopter_A.wav,1,OLD,,,1,1,0.551055,0,112,112,112,1,,
,,,,,,,,,,,,,2,5fb1ccf448fe0270bbe2bc7a,001,2021-02-19_23h46.21.830,GuessTheSound,2020.2.10,Win32,60,,,,,,,,,,,,,,,CarStart_D.wav,3,NEW,,,3,1,0.386395,0,113,113,113,1,,
,,,,,,,,,,,,,1,5fb1ccf448fe0270bbe2bc7a,001,2021-02-19_23h46.21.830,GuessTheSound,2020.2.10,Win32,60,,,,,,,,,,,,,,,Initial/Repeat/Howl.wav,1,OLD,,,2,0,0.351305,0,114,114,114,1,,
,,,,,,,,,,,,,2,5fb1ccf448fe0270bbe2bc7a,001,2021-02-19_23h46.21.830,GuessTheSound,2020.2.10,Win32,60,,,,,,,,,,,,,,,Growl_B.wav,2,SIMILAR,,,2,1,0.352445,0,115,115,115,1,,
,,,,,,,,,,,,,2,5fb1ccf448fe0270bbe2bc7a,001,2021-02-19_23h46.21.830,GuessTheSound,2020.2.10,Win32,60,,,,,,,,,,,,,,,Goat_C.wav,2,SIMILAR,,,1,0,0.27169,0,116,116,116,1,,
,,,,,,,,,,,,,2,5fb1ccf448fe0270bbe2bc7a,001,2021-02-19_23h46.21.830,GuessTheSound,2020.2.10,Win32,60,,,,,,,,,,,,,,,Test/Foils/Donkey.wav,3,NEW,,,2,0,0.31641,0,117,117,117,1,,
,,,,,,,,,,,,,1,5fb1ccf448fe0270bbe2bc7a,001,2021-02-19_23h46.21.830,GuessTheSound,2020.2.10,Win32,60,,,,,,,,,,,,,,,Initial/Repeat/PaperRip.wav,1,OLD,,,1,1,0.283435,0,118,118,118,1,,
,,,,,,,,,,,,,2,5fb1ccf448fe0270bbe2bc7a,001,2021-02-19_23h46.21.830,GuessTheSound,2020.2.10,Win32,60,,,,,,,,,,,,,,,ManWhistle_D.wav,2,SIMILAR,,,2,1,0.017325,0,119,119,119,1,,
,,,,,,,,,,,,,1,5fb1ccf448fe0270bbe2bc7a,001,2021-02-19_23h46.21.830,GuessTheSound,2020.2.10,Win32,60,,,,,,,,,,,,,,,Test/Foils/Horse.wav,1,OLD,,,1,1,0.485985,0,120,120,120,1,,
,,,,,,,,,,,,,1,5fb1ccf448fe0270bbe2bc7a,001,2021-02-19_23h46.21.830,GuessTheSound,2020.2.10,Win32,60,,,,,,,,,,,,,,,Initial/Repeat/Printer.wav,1,OLD,,,1,1,0.337365,0,121,121,121,1,,
,,,,,,,,,,,,,1,5fb1ccf448fe0270bbe2bc7a,001,2021-02-19_23h46.21.830,GuessTheSound,2020.2.10,Win32,60,,,,,,,,,,,,,,,Test/Foils/Camera.wav,1,OLD,,,1,1,0.317235,0,122,122,122,1,,
,,,,,,,,,,,,,1,5fb1ccf448fe0270bbe2bc7a,001,2021-02-19_23h46.21.830,GuessTheSound,2020.2.10,Win32,60,,,,,,,,,,,,,,,Initial/NoRepeat/Droplet_B.wav,1,OLD,,,1,1,0.304495,0,123,123,123,1,,
,,,,,,,,,,,,,1,5fb1ccf448fe0270bbe2bc7a,001,2021-02-19_23h46.21.830,GuessTheSound,2020.2.10,Win32,60,,,,,,,,,,,,,,,Test/Foils/Steam.wav,1,OLD,,,2,0,1.13449,0,124,124,124,1,,
,,,,,,,,,,,,,2,5fb1ccf448fe0270bbe2bc7a,001,2021-02-19_23h46.21.830,GuessTheSound,2020.2.10,Win32,60,,,,,,,,,,,,,,,Initial/Doubled/CarStart_A.wav,2,SIMILAR,,,2,1,0.320105,0,125,125,125,1,,
,,,,,,,,,,,,,1,5fb1ccf448fe0270bbe2bc7a,001,2021-02-19_23h46.21.830,GuessTheSound,2020.2.10,Win32,60,,,,,,,,,,,,,,,Test/Foils/Donkey.wav,1,OLD,,,1,1,0.320825,0,126,126,126,1,,
,,,,,,,,,,,,,2,5fb1ccf448fe0270bbe2bc7a,001,2021-02-19_23h46.21.830,GuessTheSound,2020.2.10,Win32,60,,,,,,,,,,,,,,,Piano_D.wav,2,SIMILAR,,,2,1,0.487675,0,127,127,127,1,,
,,,,,,,,,,,,,,5fb1ccf448fe0270bbe2bc7a,001,2021-02-19_23h46.21.830,GuessTheSound,2020.2.10,Win32,60,,,,,,,,,,,,,,,,,,,,,,,,,,,,space,46.723405
