VolumeContinueKey.keys,VolumeContinueKey.rt,HeadphoneContinueKey.keys,HeadphoneContinueKey.rt,CheckResp.keys,CheckResp.corr,CheckResp.rt,trials_2.thisRepN,trials_2.thisTrialN,trials_2.thisN,trials_2.thisIndex,trials_2.ran,File,Correct,participant,date,expName,psychopyVersion,OS,frameRate,key_resp_2.keys,key_resp_2.rt,key_resp_3.keys,key_resp_3.rt,WelcomeContinueKey2.keys,WelcomeContinueKey2.rt,Practice_resp.keys,Practice_resp.corr,Practice_resp.rt,PracticeLoop.thisRepN,PracticeLoop.thisTrialN,PracticeLoop.thisN,PracticeLoop.thisIndex,PracticeLoop.ran,SoundFile,SoundCorrect,Correct2,SoundType,Trial,StartTast.keys,StartTast.rt,key_resp.keys,key_resp.corr,key_resp.rt,trials.thisRepN,trials.thisTrialN,trials.thisN,trials.thisIndex,trials.ran
space,2.27952,space,16.16446,1,1,11.34596,0,0,0,0,1,Headphone/t1_1.wav,1,5fbe5321e3dc2e000927aeca,2021-03-21_16h18.28.073,GuessTheSound,2020.2.10,Win32,60,,,,,,,,,,,,,,,,,,,,,,,,,,,,,
,,,,3,1,0.703425,0,1,1,4,1,Headphone/t3_1.wav,3,5fbe5321e3dc2e000927aeca,2021-03-21_16h18.28.073,GuessTheSound,2020.2.10,Win32,60,,,,,,,,,,,,,,,,,,,,,,,,,,,,,
,,,,1,1,0.339895,0,2,2,1,1,Headphone/t1_2.wav,1,5fbe5321e3dc2e000927aeca,2021-03-21_16h18.28.073,GuessTheSound,2020.2.10,Win32,60,,,,,,,,,,,,,,,,,,,,,,,,,,,,,
,,,,2,1,0.53358,0,3,3,2,1,Headphone/t2_1.wav,2,5fbe5321e3dc2e000927aeca,2021-03-21_16h18.28.073,GuessTheSound,2020.2.10,Win32,60,,,,,,,,,,,,,,,,,,,,,,,,,,,,,
,,,,2,1,0.45536,0,4,4,3,1,Headphone/t2_2.wav,2,5fbe5321e3dc2e000927aeca,2021-03-21_16h18.28.073,GuessTheSound,2020.2.10,Win32,60,,,,,,,,,,,,,,,,,,,,,,,,,,,,,
,,,,3,1,0.243145,0,5,5,5,1,Headphone/t3_2.wav,3,5fbe5321e3dc2e000927aeca,2021-03-21_16h18.28.073,GuessTheSound,2020.2.10,Win32,60,,,,,,,,,,,,,,,,,,,,,,,,,,,,,
,,,,,,,,,,,,,,5fbe5321e3dc2e000927aeca,2021-03-21_16h18.28.073,GuessTheSound,2020.2.10,Win32,60,space,14.00829,space,7.23082,space,1.93676,2,1,2.418995,0,0,0,0,1,Practice/Seagull_A.wav,2,3,NEW,Practice,,,,,,,,,,
,,,,,,,,,,,,,,5fbe5321e3dc2e000927aeca,2021-03-21_16h18.28.073,GuessTheSound,2020.2.10,Win32,60,,,,,,,2,1,0.983585,0,1,1,1,1,Practice/Skid_B.wav,2,3,NEW,Practice,,,,,,,,,,
,,,,,,,,,,,,,,5fbe5321e3dc2e000927aeca,2021-03-21_16h18.28.073,GuessTheSound,2020.2.10,Win32,60,,,,,,,1,1,0.327165,0,2,2,2,1,Practice/Seagull_A.wav,1,1,OLD,Practice,,,,,,,,,,
,,,,,,,,,,,,,,5fbe5321e3dc2e000927aeca,2021-03-21_16h18.28.073,GuessTheSound,2020.2.10,Win32,60,,,,,,,2,1,0.290365,0,3,3,3,1,Practice/Gargle_A.wav,2,3,NEW,Practice,,,,,,,,,,
,,,,,,,,,,,,,,5fbe5321e3dc2e000927aeca,2021-03-21_16h18.28.073,GuessTheSound,2020.2.10,Win32,60,,,,,,,2,1,0.255975,0,4,4,4,1,Practice/Gargle_B.wav,2,2,SIMILAR,Practice,,,,,,,,,,
,,,,,,,,,,,,,,5fbe5321e3dc2e000927aeca,2021-03-21_16h18.28.073,GuessTheSound,2020.2.10,Win32,60,,,,,,,,,,,,,,,SoundMST/CarStart_E.wav,2,3,NEW,C,space,1.03781,2,1,1.676105,0,0,0,0,1
,,,,,,,,,,,,,,5fbe5321e3dc2e000927aeca,2021-03-21_16h18.28.073,GuessTheSound,2020.2.10,Win32,60,,,,,,,,,,,,,,,SoundMST/Bird_C.wav,2,3,NEW,C,,,2,1,0.23575,0,1,1,1,1
,,,,,,,,,,,,,,5fbe5321e3dc2e000927aeca,2021-03-21_16h18.28.073,GuessTheSound,2020.2.10,Win32,60,,,,,,,,,,,,,,,SoundMST/Bubbles_A.wav,2,3,NEW,C,,,2,1,0.31781,0,2,2,2,1
,,,,,,,,,,,,,,5fbe5321e3dc2e000927aeca,2021-03-21_16h18.28.073,GuessTheSound,2020.2.10,Win32,60,,,,,,,,,,,,,,,SoundMST/Horse.wav,2,3,NEW,C,,,2,1,0.23366,0,3,3,3,1
,,,,,,,,,,,,,,5fbe5321e3dc2e000927aeca,2021-03-21_16h18.28.073,GuessTheSound,2020.2.10,Win32,60,,,,,,,,,,,,,,,SoundMST/IceDrop.wav,2,3,NEW,C,,,2,1,0.29078,0,4,4,4,1
,,,,,,,,,,,,,,5fbe5321e3dc2e000927aeca,2021-03-21_16h18.28.073,GuessTheSound,2020.2.10,Win32,60,,,,,,,,,,,,,,,SoundMST/Sleighbells_B.wav,2,3,NEW,C,,,2,1,0.2482,0,5,5,5,1
,,,,,,,,,,,,,,5fbe5321e3dc2e000927aeca,2021-03-21_16h18.28.073,GuessTheSound,2020.2.10,Win32,60,,,,,,,,,,,,,,,SoundMST/Growl_G.wav,2,3,NEW,C,,,2,1,0.15713,0,6,6,6,1
,,,,,,,,,,,,,,5fbe5321e3dc2e000927aeca,2021-03-21_16h18.28.073,GuessTheSound,2020.2.10,Win32,60,,,,,,,,,,,,,,,SoundMST/Chicken_A.wav,2,3,NEW,C,,,2,1,0.27908,0,7,7,7,1
,,,,,,,,,,,,,,5fbe5321e3dc2e000927aeca,2021-03-21_16h18.28.073,GuessTheSound,2020.2.10,Win32,60,,,,,,,,,,,,,,,SoundMST/Slurp.wav,2,3,NEW,C,,,2,1,0.4577,0,8,8,8,1
,,,,,,,,,,,,,,5fbe5321e3dc2e000927aeca,2021-03-21_16h18.28.073,GuessTheSound,2020.2.10,Win32,60,,,,,,,,,,,,,,,SoundMST/CarStart_D.wav,2,2,SIMILAR,C,,,1,0,0.233075,0,9,9,9,1
,,,,,,,,,,,,,,5fbe5321e3dc2e000927aeca,2021-03-21_16h18.28.073,GuessTheSound,2020.2.10,Win32,60,,,,,,,,,,,,,,,SoundMST/Printer.wav,2,3,NEW,C,,,2,1,0.28836,0,10,10,10,1
,,,,,,,,,,,,,,5fbe5321e3dc2e000927aeca,2021-03-21_16h18.28.073,GuessTheSound,2020.2.10,Win32,60,,,,,,,,,,,,,,,SoundMST/Bowlingpins.wav,2,3,NEW,C,,,2,1,0.23127,0,11,11,11,1
,,,,,,,,,,,,,,5fbe5321e3dc2e000927aeca,2021-03-21_16h18.28.073,GuessTheSound,2020.2.10,Win32,60,,,,,,,,,,,,,,,SoundMST/Fireworks.wav,2,3,NEW,C,,,2,1,1.80089,0,12,12,12,1
,,,,,,,,,,,,,,5fbe5321e3dc2e000927aeca,2021-03-21_16h18.28.073,GuessTheSound,2020.2.10,Win32,60,,,,,,,,,,,,,,,SoundMST/Howl.wav,2,3,NEW,C,,,2,1,0.3056,0,13,13,13,1
,,,,,,,,,,,,,,5fbe5321e3dc2e000927aeca,2021-03-21_16h18.28.073,GuessTheSound,2020.2.10,Win32,60,,,,,,,,,,,,,,,SoundMST/Goat_B.wav,2,3,NEW,C,,,2,1,0.248525,0,14,14,14,1
,,,,,,,,,,,,,,5fbe5321e3dc2e000927aeca,2021-03-21_16h18.28.073,GuessTheSound,2020.2.10,Win32,60,,,,,,,,,,,,,,,SoundMST/Horse.wav,1,1,OLD,C,,,1,1,0.236095,0,15,15,15,1
,,,,,,,,,,,,,,5fbe5321e3dc2e000927aeca,2021-03-21_16h18.28.073,GuessTheSound,2020.2.10,Win32,60,,,,,,,,,,,,,,,SoundMST/Laugh_A.wav,2,3,NEW,C,,,2,1,0.388995,0,16,16,16,1
,,,,,,,,,,,,,,5fbe5321e3dc2e000927aeca,2021-03-21_16h18.28.073,GuessTheSound,2020.2.10,Win32,60,,,,,,,,,,,,,,,SoundMST/Bubbles_B.wav,2,2,SIMILAR,C,,,2,1,1.261465,0,17,17,17,1
,,,,,,,,,,,,,,5fbe5321e3dc2e000927aeca,2021-03-21_16h18.28.073,GuessTheSound,2020.2.10,Win32,60,,,,,,,,,,,,,,,SoundMST/Footsteps_C.wav,2,3,NEW,C,,,2,1,0.30903,0,18,18,18,1
,,,,,,,,,,,,,,5fbe5321e3dc2e000927aeca,2021-03-21_16h18.28.073,GuessTheSound,2020.2.10,Win32,60,,,,,,,,,,,,,,,SoundMST/Duck_A.wav,2,3,NEW,C,,,2,1,0.24608,0,19,19,19,1
,,,,,,,,,,,,,,5fbe5321e3dc2e000927aeca,2021-03-21_16h18.28.073,GuessTheSound,2020.2.10,Win32,60,,,,,,,,,,,,,,,SoundMST/Cow.wav,2,3,NEW,C,,,1,0,0.3006,0,20,20,20,1
,,,,,,,,,,,,,,5fbe5321e3dc2e000927aeca,2021-03-21_16h18.28.073,GuessTheSound,2020.2.10,Win32,60,,,,,,,,,,,,,,,SoundMST/Airhorn.wav,2,3,NEW,C,,,2,1,0.26363,0,21,21,21,1
,,,,,,,,,,,,,,5fbe5321e3dc2e000927aeca,2021-03-21_16h18.28.073,GuessTheSound,2020.2.10,Win32,60,,,,,,,,,,,,,,,SoundMST/Printer.wav,1,1,OLD,C,,,1,1,0.276095,0,22,22,22,1
,,,,,,,,,,,,,,5fbe5321e3dc2e000927aeca,2021-03-21_16h18.28.073,GuessTheSound,2020.2.10,Win32,60,,,,,,,,,,,,,,,SoundMST/Sleighbells_B.wav,1,1,OLD,C,,,1,1,0.2805,0,23,23,23,1
,,,,,,,,,,,,,,5fbe5321e3dc2e000927aeca,2021-03-21_16h18.28.073,GuessTheSound,2020.2.10,Win32,60,,,,,,,,,,,,,,,SoundMST/Camera.wav,2,3,NEW,C,,,2,1,0.29303,0,24,24,24,1
,,,,,,,,,,,,,,5fbe5321e3dc2e000927aeca,2021-03-21_16h18.28.073,GuessTheSound,2020.2.10,Win32,60,,,,,,,,,,,,,,,SoundMST/Growl_H.wav,2,2,SIMILAR,C,,,1,0,0.297025,0,25,25,25,1
,,,,,,,,,,,,,,5fbe5321e3dc2e000927aeca,2021-03-21_16h18.28.073,GuessTheSound,2020.2.10,Win32,60,,,,,,,,,,,,,,,SoundMST/Whistle_B.wav,2,3,NEW,C,,,2,1,0.313555,0,26,26,26,1
,,,,,,,,,,,,,,5fbe5321e3dc2e000927aeca,2021-03-21_16h18.28.073,GuessTheSound,2020.2.10,Win32,60,,,,,,,,,,,,,,,SoundMST/Piano_D.wav,2,3,NEW,C,,,2,1,0.49724,0,27,27,27,1
,,,,,,,,,,,,,,5fbe5321e3dc2e000927aeca,2021-03-21_16h18.28.073,GuessTheSound,2020.2.10,Win32,60,,,,,,,,,,,,,,,SoundMST/Coin_D.wav,2,3,NEW,C,,,2,1,0.26932,0,28,28,28,1
,,,,,,,,,,,,,,5fbe5321e3dc2e000927aeca,2021-03-21_16h18.28.073,GuessTheSound,2020.2.10,Win32,60,,,,,,,,,,,,,,,SoundMST/Bird_A.wav,2,2,SIMILAR,C,,,2,1,1.751965,0,29,29,29,1
,,,,,,,,,,,,,,5fbe5321e3dc2e000927aeca,2021-03-21_16h18.28.073,GuessTheSound,2020.2.10,Win32,60,,,,,,,,,,,,,,,SoundMST/PaperRip.wav,2,3,NEW,C,,,2,1,1.991465,0,30,30,30,1
,,,,,,,,,,,,,,5fbe5321e3dc2e000927aeca,2021-03-21_16h18.28.073,GuessTheSound,2020.2.10,Win32,60,,,,,,,,,,,,,,,SoundMST/Slurp.wav,1,1,OLD,C,,,1,1,0.773155,0,31,31,31,1
,,,,,,,,,,,,,,5fbe5321e3dc2e000927aeca,2021-03-21_16h18.28.073,GuessTheSound,2020.2.10,Win32,60,,,,,,,,,,,,,,,SoundMST/Howl.wav,1,1,OLD,C,,,1,1,0.273115,0,32,32,32,1
,,,,,,,,,,,,,,5fbe5321e3dc2e000927aeca,2021-03-21_16h18.28.073,GuessTheSound,2020.2.10,Win32,60,,,,,,,,,,,,,,,SoundMST/IceDrop.wav,1,1,OLD,C,,,1,1,0.54206,0,33,33,33,1
,,,,,,,,,,,,,,5fbe5321e3dc2e000927aeca,2021-03-21_16h18.28.073,GuessTheSound,2020.2.10,Win32,60,,,,,,,,,,,,,,,SoundMST/Pour_B.wav,2,3,NEW,C,,,2,1,0.280685,0,34,34,34,1
,,,,,,,,,,,,,,5fbe5321e3dc2e000927aeca,2021-03-21_16h18.28.073,GuessTheSound,2020.2.10,Win32,60,,,,,,,,,,,,,,,SoundMST/Fireworks.wav,1,1,OLD,C,,,1,1,0.23714,0,35,35,35,1
,,,,,,,,,,,,,,5fbe5321e3dc2e000927aeca,2021-03-21_16h18.28.073,GuessTheSound,2020.2.10,Win32,60,,,,,,,,,,,,,,,SoundMST/Footsteps_F.wav,2,2,SIMILAR,C,,,1,0,0.43696,0,36,36,36,1
,,,,,,,,,,,,,,5fbe5321e3dc2e000927aeca,2021-03-21_16h18.28.073,GuessTheSound,2020.2.10,Win32,60,,,,,,,,,,,,,,,SoundMST/Chicken_A.wav,1,1,OLD,C,,,2,0,0.3813,0,37,37,37,1
,,,,,,,,,,,,,,5fbe5321e3dc2e000927aeca,2021-03-21_16h18.28.073,GuessTheSound,2020.2.10,Win32,60,,,,,,,,,,,,,,,SoundMST/Bullfrog.wav,2,3,NEW,C,,,1,0,0.395,0,38,38,38,1
,,,,,,,,,,,,,,5fbe5321e3dc2e000927aeca,2021-03-21_16h18.28.073,GuessTheSound,2020.2.10,Win32,60,,,,,,,,,,,,,,,SoundMST/Bowlingpins.wav,1,1,OLD,C,,,1,1,0.25483,0,39,39,39,1
,,,,,,,,,,,,,,5fbe5321e3dc2e000927aeca,2021-03-21_16h18.28.073,GuessTheSound,2020.2.10,Win32,60,,,,,,,,,,,,,,,SoundMST/Helicopter_A.wav,2,3,NEW,C,,,2,1,0.36326,0,40,40,40,1
,,,,,,,,,,,,,,5fbe5321e3dc2e000927aeca,2021-03-21_16h18.28.073,GuessTheSound,2020.2.10,Win32,60,,,,,,,,,,,,,,,SoundMST/Goat_C.wav,2,2,SIMILAR,C,,,2,1,0.294335,0,41,41,41,1
,,,,,,,,,,,,,,5fbe5321e3dc2e000927aeca,2021-03-21_16h18.28.073,GuessTheSound,2020.2.10,Win32,60,,,,,,,,,,,,,,,SoundMST/HairDryer_A.wav,2,3,NEW,C,,,2,1,0.25645,0,42,42,42,1
,,,,,,,,,,,,,,5fbe5321e3dc2e000927aeca,2021-03-21_16h18.28.073,GuessTheSound,2020.2.10,Win32,60,,,,,,,,,,,,,,,SoundMST/Duck_B.wav,2,2,SIMILAR,C,,,2,1,0.339905,0,43,43,43,1
,,,,,,,,,,,,,,5fbe5321e3dc2e000927aeca,2021-03-21_16h18.28.073,GuessTheSound,2020.2.10,Win32,60,,,,,,,,,,,,,,,SoundMST/PaperRip.wav,1,1,OLD,C,,,1,1,0.20561,0,44,44,44,1
,,,,,,,,,,,,,,5fbe5321e3dc2e000927aeca,2021-03-21_16h18.28.073,GuessTheSound,2020.2.10,Win32,60,,,,,,,,,,,,,,,SoundMST/Dog_H.wav,2,3,NEW,C,,,2,1,0.205165,0,45,45,45,1
,,,,,,,,,,,,,,5fbe5321e3dc2e000927aeca,2021-03-21_16h18.28.073,GuessTheSound,2020.2.10,Win32,60,,,,,,,,,,,,,,,SoundMST/Camera.wav,1,1,OLD,C,,,1,1,0.28219,0,46,46,46,1
,,,,,,,,,,,,,,5fbe5321e3dc2e000927aeca,2021-03-21_16h18.28.073,GuessTheSound,2020.2.10,Win32,60,,,,,,,,,,,,,,,SoundMST/Laugh_D.wav,2,2,SIMILAR,C,,,2,1,0.19526,0,47,47,47,1
,,,,,,,,,,,,,,5fbe5321e3dc2e000927aeca,2021-03-21_16h18.28.073,GuessTheSound,2020.2.10,Win32,60,,,,,,,,,,,,,,,SoundMST/Sneeze_B.wav,2,3,NEW,C,,,2,1,0.93299,0,48,48,48,1
,,,,,,,,,,,,,,5fbe5321e3dc2e000927aeca,2021-03-21_16h18.28.073,GuessTheSound,2020.2.10,Win32,60,,,,,,,,,,,,,,,SoundMST/Cow.wav,1,1,OLD,C,,,1,1,0.42373,0,49,49,49,1
,,,,,,,,,,,,,,5fbe5321e3dc2e000927aeca,2021-03-21_16h18.28.073,GuessTheSound,2020.2.10,Win32,60,,,,,,,,,,,,,,,SoundMST/Donkey.wav,2,3,NEW,C,,,2,1,0.29022,0,50,50,50,1
,,,,,,,,,,,,,,5fbe5321e3dc2e000927aeca,2021-03-21_16h18.28.073,GuessTheSound,2020.2.10,Win32,60,,,,,,,,,,,,,,,SoundMST/Coin_E.wav,2,2,SIMILAR,C,,,1,0,0.280365,0,51,51,51,1
,,,,,,,,,,,,,,5fbe5321e3dc2e000927aeca,2021-03-21_16h18.28.073,GuessTheSound,2020.2.10,Win32,60,,,,,,,,,,,,,,,SoundMST/Buzz.wav,2,3,NEW,C,,,2,1,0.27833,0,52,52,52,1
,,,,,,,,,,,,,,5fbe5321e3dc2e000927aeca,2021-03-21_16h18.28.073,GuessTheSound,2020.2.10,Win32,60,,,,,,,,,,,,,,,SoundMST/Piano_D.wav,1,1,OLD,C,,,1,1,0.383975,0,53,53,53,1
,,,,,,,,,,,,,,5fbe5321e3dc2e000927aeca,2021-03-21_16h18.28.073,GuessTheSound,2020.2.10,Win32,60,,,,,,,,,,,,,,,SoundMST/Hammer_A.wav,2,3,NEW,C,,,2,1,0.76289,0,54,54,54,1
,,,,,,,,,,,,,,5fbe5321e3dc2e000927aeca,2021-03-21_16h18.28.073,GuessTheSound,2020.2.10,Win32,60,,,,,,,,,,,,,,,SoundMST/Airhorn.wav,1,1,OLD,C,,,1,1,0.462895,0,55,55,55,1
,,,,,,,,,,,,,,5fbe5321e3dc2e000927aeca,2021-03-21_16h18.28.073,GuessTheSound,2020.2.10,Win32,60,,,,,,,,,,,,,,,SoundMST/Whistle_C.wav,2,2,SIMILAR,C,,,1,0,0.35745,0,56,56,56,1
,,,,,,,,,,,,,,5fbe5321e3dc2e000927aeca,2021-03-21_16h18.28.073,GuessTheSound,2020.2.10,Win32,60,,,,,,,,,,,,,,,SoundMST/Faucet_A.wav,2,3,NEW,C,,,2,1,0.624735,0,57,57,57,1
,,,,,,,,,,,,,,5fbe5321e3dc2e000927aeca,2021-03-21_16h18.28.073,GuessTheSound,2020.2.10,Win32,60,,,,,,,,,,,,,,,SoundMST/Pour_C.wav,2,2,SIMILAR,C,,,1,0,0.910975,0,58,58,58,1
,,,,,,,,,,,,,,5fbe5321e3dc2e000927aeca,2021-03-21_16h18.28.073,GuessTheSound,2020.2.10,Win32,60,,,,,,,,,,,,,,,SoundMST/Crow_B.wav,2,3,NEW,C,,,1,0,0.824155,0,59,59,59,1
,,,,,,,,,,,,,,5fbe5321e3dc2e000927aeca,2021-03-21_16h18.28.073,GuessTheSound,2020.2.10,Win32,60,,,,,,,,,,,,,,,SoundMST/Trumpet_B.wav,2,3,NEW,C,,,2,1,0.305965,0,60,60,60,1
,,,,,,,,,,,,,,5fbe5321e3dc2e000927aeca,2021-03-21_16h18.28.073,GuessTheSound,2020.2.10,Win32,60,,,,,,,,,,,,,,,SoundMST/Bullfrog.wav,1,1,OLD,C,,,1,1,0.353305,0,61,61,61,1
,,,,,,,,,,,,,,5fbe5321e3dc2e000927aeca,2021-03-21_16h18.28.073,GuessTheSound,2020.2.10,Win32,60,,,,,,,,,,,,,,,SoundMST/Helicopter_A.wav,1,1,OLD,C,,,1,1,0.324605,0,62,62,62,1
,,,,,,,,,,,,,,5fbe5321e3dc2e000927aeca,2021-03-21_16h18.28.073,GuessTheSound,2020.2.10,Win32,60,,,,,,,,,,,,,,,SoundMST/Elephant_C.wav,2,3,NEW,C,,,2,1,0.67929,0,63,63,63,1
,,,,,,,,,,,,,,5fbe5321e3dc2e000927aeca,2021-03-21_16h18.28.073,GuessTheSound,2020.2.10,Win32,60,,,,,,,,,,,,,,,SoundMST/Sneeze_B.wav,1,1,OLD,C,,,2,0,0.49642,0,64,64,64,1
,,,,,,,,,,,,,,5fbe5321e3dc2e000927aeca,2021-03-21_16h18.28.073,GuessTheSound,2020.2.10,Win32,60,,,,,,,,,,,,,,,SoundMST/Chime_B.wav,2,3,NEW,C,,,2,1,0.248555,0,65,65,65,1
,,,,,,,,,,,,,,5fbe5321e3dc2e000927aeca,2021-03-21_16h18.28.073,GuessTheSound,2020.2.10,Win32,60,,,,,,,,,,,,,,,SoundMST/Phone_D.wav,2,3,NEW,C,,,2,1,0.32334,0,66,66,66,1
,,,,,,,,,,,,,,5fbe5321e3dc2e000927aeca,2021-03-21_16h18.28.073,GuessTheSound,2020.2.10,Win32,60,,,,,,,,,,,,,,,SoundMST/HairDryer_A.wav,1,1,OLD,C,,,1,1,0.227975,0,67,67,67,1
,,,,,,,,,,,,,,5fbe5321e3dc2e000927aeca,2021-03-21_16h18.28.073,GuessTheSound,2020.2.10,Win32,60,,,,,,,,,,,,,,,SoundMST/Puff_A.wav,2,3,NEW,C,,,2,1,0.1448,0,68,68,68,1
,,,,,,,,,,,,,,5fbe5321e3dc2e000927aeca,2021-03-21_16h18.28.073,GuessTheSound,2020.2.10,Win32,60,,,,,,,,,,,,,,,SoundMST/Dog_F.wav,2,2,SIMILAR,C,,,2,1,0.288365,0,69,69,69,1
,,,,,,,,,,,,,,5fbe5321e3dc2e000927aeca,2021-03-21_16h18.28.073,GuessTheSound,2020.2.10,Win32,60,,,,,,,,,,,,,,,SoundMST/Donkey.wav,1,1,OLD,C,,,1,1,0.269475,0,70,70,70,1
,,,,,,,,,,,,,,5fbe5321e3dc2e000927aeca,2021-03-21_16h18.28.073,GuessTheSound,2020.2.10,Win32,60,,,,,,,,,,,,,,,SoundMST/Toilet_B.wav,2,3,NEW,C,,,1,0,0.347445,0,71,71,71,1
,,,,,,,,,,,,,,5fbe5321e3dc2e000927aeca,2021-03-21_16h18.28.073,GuessTheSound,2020.2.10,Win32,60,,,,,,,,,,,,,,,SoundMST/Writing_A.wav,2,3,NEW,C,,,2,1,0.082175,0,72,72,72,1
,,,,,,,,,,,,,,5fbe5321e3dc2e000927aeca,2021-03-21_16h18.28.073,GuessTheSound,2020.2.10,Win32,60,,,,,,,,,,,,,,,SoundMST/Cello.wav,2,3,NEW,C,,,2,1,1.20552,0,73,73,73,1
,,,,,,,,,,,,,,5fbe5321e3dc2e000927aeca,2021-03-21_16h18.28.073,GuessTheSound,2020.2.10,Win32,60,,,,,,,,,,,,,,,SoundMST/Crow_A.wav,2,2,SIMILAR,C,,,1,0,0.324215,0,74,74,74,1
,,,,,,,,,,,,,,5fbe5321e3dc2e000927aeca,2021-03-21_16h18.28.073,GuessTheSound,2020.2.10,Win32,60,,,,,,,,,,,,,,,SoundMST/Hammer_A.wav,1,1,OLD,C,,,1,1,0.927345,0,75,75,75,1
,,,,,,,,,,,,,,5fbe5321e3dc2e000927aeca,2021-03-21_16h18.28.073,GuessTheSound,2020.2.10,Win32,60,,,,,,,,,,,,,,,SoundMST/Cuckoo_A.wav,2,3,NEW,C,,,2,1,0.290175,0,76,76,76,1
,,,,,,,,,,,,,,5fbe5321e3dc2e000927aeca,2021-03-21_16h18.28.073,GuessTheSound,2020.2.10,Win32,60,,,,,,,,,,,,,,,SoundMST/Buzz.wav,1,1,OLD,C,,,1,1,0.939455,0,77,77,77,1
,,,,,,,,,,,,,,5fbe5321e3dc2e000927aeca,2021-03-21_16h18.28.073,GuessTheSound,2020.2.10,Win32,60,,,,,,,,,,,,,,,SoundMST/Siren_E.wav,2,3,NEW,C,,,2,1,1.04276,0,78,78,78,1
,,,,,,,,,,,,,,5fbe5321e3dc2e000927aeca,2021-03-21_16h18.28.073,GuessTheSound,2020.2.10,Win32,60,,,,,,,,,,,,,,,SoundMST/Trumpet_B.wav,1,1,OLD,C,,,1,1,0.304595,0,79,79,79,1
,,,,,,,,,,,,,,5fbe5321e3dc2e000927aeca,2021-03-21_16h18.28.073,GuessTheSound,2020.2.10,Win32,60,,,,,,,,,,,,,,,SoundMST/Wind_B.wav,2,3,NEW,C,,,2,1,0.276265,0,80,80,80,1
,,,,,,,,,,,,,,5fbe5321e3dc2e000927aeca,2021-03-21_16h18.28.073,GuessTheSound,2020.2.10,Win32,60,,,,,,,,,,,,,,,SoundMST/Cat_A.wav,2,3,NEW,C,,,2,1,0.275675,0,81,81,81,1
,,,,,,,,,,,,,,5fbe5321e3dc2e000927aeca,2021-03-21_16h18.28.073,GuessTheSound,2020.2.10,Win32,60,,,,,,,,,,,,,,,SoundMST/Phone_E.wav,2,2,SIMILAR,C,,,1,0,0.783445,0,82,82,82,1
,,,,,,,,,,,,,,5fbe5321e3dc2e000927aeca,2021-03-21_16h18.28.073,GuessTheSound,2020.2.10,Win32,60,,,,,,,,,,,,,,,SoundMST/Chomp_A.wav,2,3,NEW,C,,,2,1,0.246075,0,83,83,83,1
,,,,,,,,,,,,,,5fbe5321e3dc2e000927aeca,2021-03-21_16h18.28.073,GuessTheSound,2020.2.10,Win32,60,,,,,,,,,,,,,,,SoundMST/Elephant_A.wav,2,2,SIMILAR,C,,,2,1,0.18708,0,84,84,84,1
,,,,,,,,,,,,,,5fbe5321e3dc2e000927aeca,2021-03-21_16h18.28.073,GuessTheSound,2020.2.10,Win32,60,,,,,,,,,,,,,,,SoundMST/Cup.wav,2,3,NEW,C,,,1,0,0.83037,0,85,85,85,1
,,,,,,,,,,,,,,5fbe5321e3dc2e000927aeca,2021-03-21_16h18.28.073,GuessTheSound,2020.2.10,Win32,60,,,,,,,,,,,,,,,SoundMST/Chime_A.wav,2,2,SIMILAR,C,,,1,0,0.230645,0,86,86,86,1
,,,,,,,,,,,,,,5fbe5321e3dc2e000927aeca,2021-03-21_16h18.28.073,GuessTheSound,2020.2.10,Win32,60,,,,,,,,,,,,,,,SoundMST/Droplet_B.wav,2,3,NEW,C,,,2,1,4.98094,0,87,87,87,1
,,,,,,,,,,,,,,5fbe5321e3dc2e000927aeca,2021-03-21_16h18.28.073,GuessTheSound,2020.2.10,Win32,60,,,,,,,,,,,,,,,SoundMST/Faucet_C.wav,2,2,SIMILAR,C,,,2,1,0.479155,0,88,88,88,1
,,,,,,,,,,,,,,5fbe5321e3dc2e000927aeca,2021-03-21_16h18.28.073,GuessTheSound,2020.2.10,Win32,60,,,,,,,,,,,,,,,SoundMST/Puff_A.wav,1,1,OLD,C,,,1,1,0.333115,0,89,89,89,1
,,,,,,,,,,,,,,5fbe5321e3dc2e000927aeca,2021-03-21_16h18.28.073,GuessTheSound,2020.2.10,Win32,60,,,,,,,,,,,,,,,SoundMST/Clap_B.wav,2,3,NEW,C,,,2,1,0.22443,0,90,90,90,1
,,,,,,,,,,,,,,5fbe5321e3dc2e000927aeca,2021-03-21_16h18.28.073,GuessTheSound,2020.2.10,Win32,60,,,,,,,,,,,,,,,SoundMST/Cello.wav,1,1,OLD,C,,,1,1,0.162955,0,91,91,91,1
,,,,,,,,,,,,,,5fbe5321e3dc2e000927aeca,2021-03-21_16h18.28.073,GuessTheSound,2020.2.10,Win32,60,,,,,,,,,,,,,,,SoundMST/Mosquito_B.wav,2,3,NEW,C,,,2,1,0.255995,0,92,92,92,1
,,,,,,,,,,,,,,5fbe5321e3dc2e000927aeca,2021-03-21_16h18.28.073,GuessTheSound,2020.2.10,Win32,60,,,,,,,,,,,,,,,SoundMST/Writing_C.wav,2,2,SIMILAR,C,,,1,0,0.227595,0,93,93,93,1
,,,,,,,,,,,,,,5fbe5321e3dc2e000927aeca,2021-03-21_16h18.28.073,GuessTheSound,2020.2.10,Win32,60,,,,,,,,,,,,,,,SoundMST/Guitar_B.wav,2,3,NEW,C,,,2,1,0.30489,0,94,94,94,1
,,,,,,,,,,,,,,5fbe5321e3dc2e000927aeca,2021-03-21_16h18.28.073,GuessTheSound,2020.2.10,Win32,60,,,,,,,,,,,,,,,SoundMST/Toilet_B.wav,1,1,OLD,C,,,1,1,0.25404,0,95,95,95,1
,,,,,,,,,,,,,,5fbe5321e3dc2e000927aeca,2021-03-21_16h18.28.073,GuessTheSound,2020.2.10,Win32,60,,,,,,,,,,,,,,,SoundMST/Bagpipe.wav,2,3,NEW,C,,,2,1,0.1932,0,96,96,96,1
,,,,,,,,,,,,,,5fbe5321e3dc2e000927aeca,2021-03-21_16h18.28.073,GuessTheSound,2020.2.10,Win32,60,,,,,,,,,,,,,,,SoundMST/Cuckoo_A.wav,1,1,OLD,C,,,1,1,0.27007,0,97,97,97,1
,,,,,,,,,,,,,,5fbe5321e3dc2e000927aeca,2021-03-21_16h18.28.073,GuessTheSound,2020.2.10,Win32,60,,,,,,,,,,,,,,,SoundMST/Wind_B.wav,1,1,OLD,C,,,1,1,0.34491,0,98,98,98,1
,,,,,,,,,,,,,,5fbe5321e3dc2e000927aeca,2021-03-21_16h18.28.073,GuessTheSound,2020.2.10,Win32,60,,,,,,,,,,,,,,,SoundMST/Cough_C.wav,2,3,NEW,C,,,2,1,0.193745,0,99,99,99,1
,,,,,,,,,,,,,,5fbe5321e3dc2e000927aeca,2021-03-21_16h18.28.073,GuessTheSound,2020.2.10,Win32,60,,,,,,,,,,,,,,,SoundMST/ManWhistle.wav,2,3,NEW,C,,,2,1,0.23293,0,100,100,100,1
,,,,,,,,,,,,,,5fbe5321e3dc2e000927aeca,2021-03-21_16h18.28.073,GuessTheSound,2020.2.10,Win32,60,,,,,,,,,,,,,,,SoundMST/Chomp_C.wav,2,2,SIMILAR,C,,,1,0,0.2621,0,101,101,101,1
,,,,,,,,,,,,,,5fbe5321e3dc2e000927aeca,2021-03-21_16h18.28.073,GuessTheSound,2020.2.10,Win32,60,,,,,,,,,,,,,,,SoundMST/Siren_A.wav,2,2,SIMILAR,C,,,2,1,0.22995,0,102,102,102,1
,,,,,,,,,,,,,,5fbe5321e3dc2e000927aeca,2021-03-21_16h18.28.073,GuessTheSound,2020.2.10,Win32,60,,,,,,,,,,,,,,,SoundMST/Thunder_A.wav,2,3,NEW,C,,,2,1,0.75259,0,103,103,103,1
,,,,,,,,,,,,,,5fbe5321e3dc2e000927aeca,2021-03-21_16h18.28.073,GuessTheSound,2020.2.10,Win32,60,,,,,,,,,,,,,,,SoundMST/Cat_A.wav,1,1,OLD,C,,,1,1,0.257485,0,104,104,104,1
,,,,,,,,,,,,,,5fbe5321e3dc2e000927aeca,2021-03-21_16h18.28.073,GuessTheSound,2020.2.10,Win32,60,,,,,,,,,,,,,,,SoundMST/Snore_C.wav,2,3,NEW,C,,,2,1,0.35767,0,105,105,105,1
,,,,,,,,,,,,,,5fbe5321e3dc2e000927aeca,2021-03-21_16h18.28.073,GuessTheSound,2020.2.10,Win32,60,,,,,,,,,,,,,,,SoundMST/Cup.wav,1,1,OLD,C,,,1,1,0.29982,0,106,106,106,1
,,,,,,,,,,,,,,5fbe5321e3dc2e000927aeca,2021-03-21_16h18.28.073,GuessTheSound,2020.2.10,Win32,60,,,,,,,,,,,,,,,SoundMST/Baby_F.wav,2,3,NEW,C,,,2,1,0.245615,0,107,107,107,1
,,,,,,,,,,,,,,5fbe5321e3dc2e000927aeca,2021-03-21_16h18.28.073,GuessTheSound,2020.2.10,Win32,60,,,,,,,,,,,,,,,SoundMST/Droplet_B.wav,1,1,OLD,C,,,1,1,0.706855,0,108,108,108,1
,,,,,,,,,,,,,,5fbe5321e3dc2e000927aeca,2021-03-21_16h18.28.073,GuessTheSound,2020.2.10,Win32,60,,,,,,,,,,,,,,,SoundMST/DialTone.wav,2,3,NEW,C,,,2,1,0.412365,0,109,109,109,1
,,,,,,,,,,,,,,5fbe5321e3dc2e000927aeca,2021-03-21_16h18.28.073,GuessTheSound,2020.2.10,Win32,60,,,,,,,,,,,,,,,SoundMST/Clap_C.wav,2,2,SIMILAR,C,,,1,0,0.269385,0,110,110,110,1
,,,,,,,,,,,,,,5fbe5321e3dc2e000927aeca,2021-03-21_16h18.28.073,GuessTheSound,2020.2.10,Win32,60,,,,,,,,,,,,,,,SoundMST/Heartbeat.wav,2,3,NEW,C,,,2,1,0.162965,0,111,111,111,1
,,,,,,,,,,,,,,5fbe5321e3dc2e000927aeca,2021-03-21_16h18.28.073,GuessTheSound,2020.2.10,Win32,60,,,,,,,,,,,,,,,SoundMST/Guitar_B.wav,1,1,OLD,C,,,1,1,0.22155,0,112,112,112,1
,,,,,,,,,,,,,,5fbe5321e3dc2e000927aeca,2021-03-21_16h18.28.073,GuessTheSound,2020.2.10,Win32,60,,,,,,,,,,,,,,,SoundMST/Typing.wav,2,3,NEW,C,,,2,1,0.31492,0,113,113,113,1
,,,,,,,,,,,,,,5fbe5321e3dc2e000927aeca,2021-03-21_16h18.28.073,GuessTheSound,2020.2.10,Win32,60,,,,,,,,,,,,,,,SoundMST/Mosquito_B.wav,1,1,OLD,C,,,1,1,0.364775,0,114,114,114,1
,,,,,,,,,,,,,,5fbe5321e3dc2e000927aeca,2021-03-21_16h18.28.073,GuessTheSound,2020.2.10,Win32,60,,,,,,,,,,,,,,,SoundMST/Airplane_B.wav,2,3,NEW,C,,,2,1,0.274385,0,115,115,115,1
,,,,,,,,,,,,,,5fbe5321e3dc2e000927aeca,2021-03-21_16h18.28.073,GuessTheSound,2020.2.10,Win32,60,,,,,,,,,,,,,,,SoundMST/ManWhistle.wav,1,1,OLD,C,,,1,1,0.28543,0,116,116,116,1
,,,,,,,,,,,,,,5fbe5321e3dc2e000927aeca,2021-03-21_16h18.28.073,GuessTheSound,2020.2.10,Win32,60,,,,,,,,,,,,,,,SoundMST/Steam.wav,2,3,NEW,C,,,2,1,0.25251,0,117,117,117,1
,,,,,,,,,,,,,,5fbe5321e3dc2e000927aeca,2021-03-21_16h18.28.073,GuessTheSound,2020.2.10,Win32,60,,,,,,,,,,,,,,,SoundMST/Baby_E.wav,2,2,SIMILAR,C,,,1,0,0.334355,0,118,118,118,1
,,,,,,,,,,,,,,5fbe5321e3dc2e000927aeca,2021-03-21_16h18.28.073,GuessTheSound,2020.2.10,Win32,60,,,,,,,,,,,,,,,SoundMST/Bagpipe.wav,1,1,OLD,C,,,1,1,0.21381,0,119,119,119,1
