WelcomeContinueKey2.keys,WelcomeContinueKey2.rt,VolumeContinueKey.keys,VolumeContinueKey.rt,ResponseBox.text,trials.thisRepN,trials.thisTrialN,trials.thisN,trials.thisIndex,trials.ran,SoundFiles,Type,participant,session,date,expName,psychopyVersion,OS,frameRate,ExitKey.keys,ExitKey.rt
space,5.77976,space,2.398875,dog toy,0,0,0,34,1,Initial/NoRepeat/Puff_A.wav,NoRepeat,5fc0aa89eba500058d6d9381,001,2021-01-01_16h58.45.967,GuessTheSound,2020.2.10,MacIntel,60,,
,,,,clop,0,1,1,69,1,Test/Foils/Gallop.wav,New,5fc0aa89eba500058d6d9381,001,2021-01-01_16h58.45.967,GuessTheSound,2020.2.10,MacIntel,60,,
,,,,barking,0,2,2,7,1,Initial/Doubled/Dog_A.wav,Doubled,5fc0aa89eba500058d6d9381,001,2021-01-01_16h58.45.967,GuessTheSound,2020.2.10,MacIntel,60,,
,,,,a choo-choo,0,3,3,76,1,Test/Foils/Steam.wav,New,5fc0aa89eba500058d6d9381,001,2021-01-01_16h58.45.967,GuessTheSound,2020.2.10,MacIntel,60,,
,,,,starting the car,0,4,4,81,1,Initial/Doubled/CarStart_A.wav,Extra,5fc0aa89eba500058d6d9381,001,2021-01-01_16h58.45.967,GuessTheSound,2020.2.10,MacIntel,60,,
,,,,pouring liquid,0,5,5,49,1,Initial/Repeat/Pour.wav,Repeat,5fc0aa89eba500058d6d9381,001,2021-01-01_16h58.45.967,GuessTheSound,2020.2.10,MacIntel,60,,
,,,,mixing ice in a glass ,0,6,6,57,1,Initial/Repeat/Stir.wav,Repeat,5fc0aa89eba500058d6d9381,001,2021-01-01_16h58.45.967,GuessTheSound,2020.2.10,MacIntel,60,,
,,,,farting,0,7,7,78,1,Test/Foils/Cards.wav,New,5fc0aa89eba500058d6d9381,001,2021-01-01_16h58.45.967,GuessTheSound,2020.2.10,MacIntel,60,,
,,,,whistling,0,8,8,50,1,Initial/Repeat/ManWhistle.wav,Repeat,5fc0aa89eba500058d6d9381,001,2021-01-01_16h58.45.967,GuessTheSound,2020.2.10,MacIntel,60,,
,,,,laughing,0,9,9,15,1,Initial/Doubled/Laugh_A.wav,Doubled,5fc0aa89eba500058d6d9381,001,2021-01-01_16h58.45.967,GuessTheSound,2020.2.10,MacIntel,60,,
,,,,playing a chord on a guitar,0,10,10,91,1,Initial/Doubled/Guitar_A.wav,Extra,5fc0aa89eba500058d6d9381,001,2021-01-01_16h58.45.967,GuessTheSound,2020.2.10,MacIntel,60,,
,,,,sound of a trumpet,0,11,11,36,1,Initial/NoRepeat/Sax_A.wav,NoRepeat,5fc0aa89eba500058d6d9381,001,2021-01-01_16h58.45.967,GuessTheSound,2020.2.10,MacIntel,60,,
,,,,knocking,0,12,12,31,1,Initial/NoRepeat/Hammer_A.wav,NoRepeat,5fc0aa89eba500058d6d9381,001,2021-01-01_16h58.45.967,GuessTheSound,2020.2.10,MacIntel,60,,
,,,,sketching something with a pencil,0,13,13,99,1,Initial/Doubled/Writing_A.wav,Extra,5fc0aa89eba500058d6d9381,001,2021-01-01_16h58.45.967,GuessTheSound,2020.2.10,MacIntel,60,,
,,,,phone ring,0,14,14,75,1,Test/Foils/Robot.wav,New,5fc0aa89eba500058d6d9381,001,2021-01-01_16h58.45.967,GuessTheSound,2020.2.10,MacIntel,60,,
,,,,raising or closing the blinds,0,15,15,67,1,Test/Foils/Curtain.wav,New,5fc0aa89eba500058d6d9381,001,2021-01-01_16h58.45.967,GuessTheSound,2020.2.10,MacIntel,60,,
,,,,a harp,0,16,16,14,1,Initial/Doubled/Harp_A.wav,Doubled,5fc0aa89eba500058d6d9381,001,2021-01-01_16h58.45.967,GuessTheSound,2020.2.10,MacIntel,60,,
,,,,piano,0,17,17,9,1,Initial/Doubled/Piano_A.wav,Doubled,5fc0aa89eba500058d6d9381,001,2021-01-01_16h58.45.967,GuessTheSound,2020.2.10,MacIntel,60,,
,,,,pouring tap water,0,18,18,27,1,Initial/NoRepeat/Faucet_A.wav,NoRepeat,5fc0aa89eba500058d6d9381,001,2021-01-01_16h58.45.967,GuessTheSound,2020.2.10,MacIntel,60,,
,,,,baby crying,0,19,19,20,1,Initial/NoRepeat/Baby_B.wav,NoRepeat,5fc0aa89eba500058d6d9381,001,2021-01-01_16h58.45.967,GuessTheSound,2020.2.10,MacIntel,60,,
,,,,,0,20,20,98,1,Initial/Doubled/Train_A.wav,Extra,5fc0aa89eba500058d6d9381,001,2021-01-01_16h58.45.967,GuessTheSound,2020.2.10,MacIntel,60,,
,,,,sound of siren,0,21,21,11,1,Initial/Doubled/Siren_A.wav,Doubled,5fc0aa89eba500058d6d9381,001,2021-01-01_16h58.45.967,GuessTheSound,2020.2.10,MacIntel,60,,
,,,,croaking,0,22,22,87,1,Initial/Repeat/Crow_B.wav,Extra,5fc0aa89eba500058d6d9381,001,2021-01-01_16h58.45.967,GuessTheSound,2020.2.10,MacIntel,60,,
,,,,whistle,0,23,23,59,1,Initial/Repeat/Whistle_A.wav,Repeat,5fc0aa89eba500058d6d9381,001,2021-01-01_16h58.45.967,GuessTheSound,2020.2.10,MacIntel,60,,
,,,,alarm clock,0,24,24,52,1,Initial/Repeat/Phone_A.wav,Repeat,5fc0aa89eba500058d6d9381,001,2021-01-01_16h58.45.967,GuessTheSound,2020.2.10,MacIntel,60,,
,,,,trumpet,0,25,25,58,1,Initial/Repeat/Trumpet_B.wav,Repeat,5fc0aa89eba500058d6d9381,001,2021-01-01_16h58.45.967,GuessTheSound,2020.2.10,MacIntel,60,,
,,,,flushing the toilet,0,26,26,23,1,Initial/NoRepeat/Toilet_B.wav,NoRepeat,5fc0aa89eba500058d6d9381,001,2021-01-01_16h58.45.967,GuessTheSound,2020.2.10,MacIntel,60,,
,,,,bleating,0,27,27,30,1,Initial/NoRepeat/Goat_B.wav,NoRepeat,5fc0aa89eba500058d6d9381,001,2021-01-01_16h58.45.967,GuessTheSound,2020.2.10,MacIntel,60,,
,,,,tearing paper,0,28,28,95,1,Test/Foils/PaperRip.wav,Extra,5fc0aa89eba500058d6d9381,001,2021-01-01_16h58.45.967,GuessTheSound,2020.2.10,MacIntel,60,,
,,,,beating the cymbal on the drums,0,29,29,45,1,Initial/Repeat/Cymbal_A.wav,Repeat,5fc0aa89eba500058d6d9381,001,2021-01-01_16h58.45.967,GuessTheSound,2020.2.10,MacIntel,60,,
,,,,,0,30,30,8,1,Initial/Doubled/Doorchime_A.wav,Doubled,5fc0aa89eba500058d6d9381,001,2021-01-01_16h58.45.967,GuessTheSound,2020.2.10,MacIntel,60,,
,,,,mooing of a cow,0,31,31,22,1,Initial/NoRepeat/Cow.wav,NoRepeat,5fc0aa89eba500058d6d9381,001,2021-01-01_16h58.45.967,GuessTheSound,2020.2.10,MacIntel,60,,
,,,,,0,32,32,41,1,Initial/Repeat/Bat.wav,Repeat,5fc0aa89eba500058d6d9381,001,2021-01-01_16h58.45.967,GuessTheSound,2020.2.10,MacIntel,60,,
,,,,drums,0,33,33,46,1,Initial/Repeat/Drum_B.wav,Repeat,5fc0aa89eba500058d6d9381,001,2021-01-01_16h58.45.967,GuessTheSound,2020.2.10,MacIntel,60,,
,,,,digging with a shovel,0,34,34,61,1,Test/Foils/Axe.wav,New,5fc0aa89eba500058d6d9381,001,2021-01-01_16h58.45.967,GuessTheSound,2020.2.10,MacIntel,60,,
,,,,the watter is boiling in the kettle,0,35,35,73,1,Test/Foils/Kettle.wav,New,5fc0aa89eba500058d6d9381,001,2021-01-01_16h58.45.967,GuessTheSound,2020.2.10,MacIntel,60,,
,,,,the sound owls make,0,36,36,16,1,Initial/Doubled/Owl_A.wav,Doubled,5fc0aa89eba500058d6d9381,001,2021-01-01_16h58.45.967,GuessTheSound,2020.2.10,MacIntel,60,,
,,,,paper party trumpets,0,37,37,74,1,Test/Foils/PartyHorn.wav,New,5fc0aa89eba500058d6d9381,001,2021-01-01_16h58.45.967,GuessTheSound,2020.2.10,MacIntel,60,,
,,,,,0,38,38,53,1,Initial/Repeat/Pingpong.wav,Repeat,5fc0aa89eba500058d6d9381,001,2021-01-01_16h58.45.967,GuessTheSound,2020.2.10,MacIntel,60,,
,,,,ocean/ sea waves,0,39,39,18,1,Initial/Doubled/Surf_A.wav,Doubled,5fc0aa89eba500058d6d9381,001,2021-01-01_16h58.45.967,GuessTheSound,2020.2.10,MacIntel,60,,
,,,,ducks,0,40,40,90,1,Initial/Doubled/Geese_A.wav,Extra,5fc0aa89eba500058d6d9381,001,2021-01-01_16h58.45.967,GuessTheSound,2020.2.10,MacIntel,60,,
,,,,,0,41,41,51,1,Initial/Repeat/MetalBang.wav,Repeat,5fc0aa89eba500058d6d9381,001,2021-01-01_16h58.45.967,GuessTheSound,2020.2.10,MacIntel,60,,
,,,,,0,42,42,84,1,Initial/Doubled/Clock_A.wav,Extra,5fc0aa89eba500058d6d9381,001,2021-01-01_16h58.45.967,GuessTheSound,2020.2.10,MacIntel,60,,
,,,,frog croaking,0,43,43,65,1,Test/Foils/Bullfrog.wav,New,5fc0aa89eba500058d6d9381,001,2021-01-01_16h58.45.967,GuessTheSound,2020.2.10,MacIntel,60,,
,,,,underwater bubbles,0,44,44,0,1,Initial/Doubled/Bubbles_A.wav,Doubled,5fc0aa89eba500058d6d9381,001,2021-01-01_16h58.45.967,GuessTheSound,2020.2.10,MacIntel,60,,
,,,,rattle,0,45,45,37,1,Initial/NoRepeat/Sleighbells_B.wav,NoRepeat,5fc0aa89eba500058d6d9381,001,2021-01-01_16h58.45.967,GuessTheSound,2020.2.10,MacIntel,60,,
,,,,thunder,0,46,46,39,1,Initial/NoRepeat/Thunder_A.wav,NoRepeat,5fc0aa89eba500058d6d9381,001,2021-01-01_16h58.45.967,GuessTheSound,2020.2.10,MacIntel,60,,
,,,,telephone signal,0,47,47,88,1,Test/Foils/DialTone.wav,Extra,5fc0aa89eba500058d6d9381,001,2021-01-01_16h58.45.967,GuessTheSound,2020.2.10,MacIntel,60,,
,,,,music box,0,48,48,33,1,Initial/NoRepeat/MusicBox_A.wav,NoRepeat,5fc0aa89eba500058d6d9381,001,2021-01-01_16h58.45.967,GuessTheSound,2020.2.10,MacIntel,60,,
,,,,elephant trumping,0,49,49,26,1,Initial/NoRepeat/Elephant_A.wav,NoRepeat,5fc0aa89eba500058d6d9381,001,2021-01-01_16h58.45.967,GuessTheSound,2020.2.10,MacIntel,60,,
,,,,putting the glass on the table,0,50,50,47,1,Initial/Repeat/Cup.wav,Repeat,5fc0aa89eba500058d6d9381,001,2021-01-01_16h58.45.967,GuessTheSound,2020.2.10,MacIntel,60,,
,,,,a duck,0,51,51,89,1,Initial/NoRepeat/Duck_A.wav,Extra,5fc0aa89eba500058d6d9381,001,2021-01-01_16h58.45.967,GuessTheSound,2020.2.10,MacIntel,60,,
,,,,roaring of a tiger,0,52,52,12,1,Initial/Doubled/Growl_A.wav,Doubled,5fc0aa89eba500058d6d9381,001,2021-01-01_16h58.45.967,GuessTheSound,2020.2.10,MacIntel,60,,
,,,,slurping,0,53,53,97,1,Test/Foils/Slurp.wav,Extra,5fc0aa89eba500058d6d9381,001,2021-01-01_16h58.45.967,GuessTheSound,2020.2.10,MacIntel,60,,
,,,,a howling wolf,0,54,54,48,1,Initial/Repeat/Howl.wav,Repeat,5fc0aa89eba500058d6d9381,001,2021-01-01_16h58.45.967,GuessTheSound,2020.2.10,MacIntel,60,,
,,,,fireworks,0,55,55,28,1,Initial/NoRepeat/Fireworks.wav,NoRepeat,5fc0aa89eba500058d6d9381,001,2021-01-01_16h58.45.967,GuessTheSound,2020.2.10,MacIntel,60,,
,,,,racing cars,0,56,56,40,1,Initial/Repeat/Airplane_B.wav,Repeat,5fc0aa89eba500058d6d9381,001,2021-01-01_16h58.45.967,GuessTheSound,2020.2.10,MacIntel,60,,
,,,,crunching,0,57,57,83,1,Initial/Doubled/Chomp_A.wav,Extra,5fc0aa89eba500058d6d9381,001,2021-01-01_16h58.45.967,GuessTheSound,2020.2.10,MacIntel,60,,
,,,,,0,58,58,35,1,Initial/NoRepeat/Saw_A.wav,NoRepeat,5fc0aa89eba500058d6d9381,001,2021-01-01_16h58.45.967,GuessTheSound,2020.2.10,MacIntel,60,,
,,,,applauding,0,59,59,3,1,Initial/Doubled/Clap_A.wav,Doubled,5fc0aa89eba500058d6d9381,001,2021-01-01_16h58.45.967,GuessTheSound,2020.2.10,MacIntel,60,,
,,,,,,,,,,,,5fc0aa89eba500058d6d9381,001,2021-01-01_16h58.45.967,GuessTheSound,2020.2.10,MacIntel,60,space,22.39179
