VolumeContinueKey.keys,VolumeContinueKey.rt,HeadphoneContinueKey.keys,HeadphoneContinueKey.rt,CheckResp.keys,CheckResp.corr,CheckResp.rt,trials_2.thisRepN,trials_2.thisTrialN,trials_2.thisN,trials_2.thisIndex,trials_2.ran,File,Correct,participant,session,date,expName,psychopyVersion,OS,frameRate,ContinueResp.keys,ContinueResp.rt,Wel2ContinueKey.keys,Wel2ContinueKey.rt,WelcomeContinueKey2.keys,WelcomeContinueKey2.rt,Practice_resp.keys,Practice_resp.corr,Practice_resp.rt,PracticeLoop.thisRepN,PracticeLoop.thisTrialN,PracticeLoop.thisN,PracticeLoop.thisIndex,PracticeLoop.ran,SoundFile,Correct2,Type,Trial,StartTast.keys,StartTast.rt,MSTResp.keys,MSTResp.corr,MSTResp.rt,trials.thisRepN,trials.thisTrialN,trials.thisN,trials.thisIndex,trials.ran,ExitKey.keys,ExitKey.rt
space,4.409505,space,13.535255,1,1,2.616725,0,0,0,0,1,Headphone/t1_1.wav,1,5ffdddf6e8c3f83879f47ff8,001,2021-03-03_00h24.23.978,GuessTheSound,2020.2.10,MacIntel,60,,,,,,,,,,,,,,,,,,,,,,,,,,,,,,
,,,,2,1,1.017755,0,1,1,3,1,Headphone/t2_2.wav,2,5ffdddf6e8c3f83879f47ff8,001,2021-03-03_00h24.23.978,GuessTheSound,2020.2.10,MacIntel,60,,,,,,,,,,,,,,,,,,,,,,,,,,,,,,
,,,,1,1,0.34653,0,2,2,1,1,Headphone/t1_2.wav,1,5ffdddf6e8c3f83879f47ff8,001,2021-03-03_00h24.23.978,GuessTheSound,2020.2.10,MacIntel,60,,,,,,,,,,,,,,,,,,,,,,,,,,,,,,
,,,,3,1,0.268225,0,3,3,5,1,Headphone/t3_2.wav,3,5ffdddf6e8c3f83879f47ff8,001,2021-03-03_00h24.23.978,GuessTheSound,2020.2.10,MacIntel,60,,,,,,,,,,,,,,,,,,,,,,,,,,,,,,
,,,,2,1,0.28982,0,4,4,2,1,Headphone/t2_1.wav,2,5ffdddf6e8c3f83879f47ff8,001,2021-03-03_00h24.23.978,GuessTheSound,2020.2.10,MacIntel,60,,,,,,,,,,,,,,,,,,,,,,,,,,,,,,
,,,,3,1,0.451745,0,5,5,4,1,Headphone/t3_1.wav,3,5ffdddf6e8c3f83879f47ff8,001,2021-03-03_00h24.23.978,GuessTheSound,2020.2.10,MacIntel,60,,,,,,,,,,,,,,,,,,,,,,,,,,,,,,
,,,,,,,,,,,,,2,5ffdddf6e8c3f83879f47ff8,001,2021-03-03_00h24.23.978,GuessTheSound,2020.2.10,MacIntel,60,space,8.69725,space,33.884295,space,4.23647,3,1,4.73539,0,0,0,0,1,Practice/Seagull_A.wav,3,NEW,Practice,,,,,,,,,,,,
,,,,,,,,,,,,,2,5ffdddf6e8c3f83879f47ff8,001,2021-03-03_00h24.23.978,GuessTheSound,2020.2.10,MacIntel,60,,,,,,,3,1,2.920505,0,1,1,1,1,Practice/Skid_B.wav,3,NEW,Practice,,,,,,,,,,,,
,,,,,,,,,,,,,1,5ffdddf6e8c3f83879f47ff8,001,2021-03-03_00h24.23.978,GuessTheSound,2020.2.10,MacIntel,60,,,,,,,1,1,0.898975,0,2,2,2,1,Practice/Seagull_A.wav,1,OLD,Practice,,,,,,,,,,,,
,,,,,,,,,,,,,2,5ffdddf6e8c3f83879f47ff8,001,2021-03-03_00h24.23.978,GuessTheSound,2020.2.10,MacIntel,60,,,,,,,3,1,0.7336,0,3,3,3,1,Practice/Gargle_A.wav,3,NEW,Practice,,,,,,,,,,,,
,,,,,,,,,,,,,2,5ffdddf6e8c3f83879f47ff8,001,2021-03-03_00h24.23.978,GuessTheSound,2020.2.10,MacIntel,60,,,,,,,2,1,1.01705,0,4,4,4,1,Practice/Gargle_B.wav,2,SIMILAR,Practice,,,,,,,,,,,,
,,,,,,,,,,,,,2,5ffdddf6e8c3f83879f47ff8,001,2021-03-03_00h24.23.978,GuessTheSound,2020.2.10,MacIntel,60,,,,,,,,,,,,,,,CarStart_F.wav,3,NEW,C,space,11.86348,3,1,1.18079,0,0,0,0,1,,
,,,,,,,,,,,,,2,5ffdddf6e8c3f83879f47ff8,001,2021-03-03_00h24.23.978,GuessTheSound,2020.2.10,MacIntel,60,,,,,,,,,,,,,,,Bird_E.wav,3,NEW,C,,,3,1,0.07023,0,1,1,1,1,,
,,,,,,,,,,,,,2,5ffdddf6e8c3f83879f47ff8,001,2021-03-03_00h24.23.978,GuessTheSound,2020.2.10,MacIntel,60,,,,,,,,,,,,,,,Initial/Doubled/Bubbles_A.wav,3,NEW,C,,,3,1,0.76611,0,2,2,2,1,,
,,,,,,,,,,,,,2,5ffdddf6e8c3f83879f47ff8,001,2021-03-03_00h24.23.978,GuessTheSound,2020.2.10,MacIntel,60,,,,,,,,,,,,,,,Test/Foils/Horse.wav,3,NEW,C,,,3,1,0.669225,0,3,3,3,1,,
,,,,,,,,,,,,,2,5ffdddf6e8c3f83879f47ff8,001,2021-03-03_00h24.23.978,GuessTheSound,2020.2.10,MacIntel,60,,,,,,,,,,,,,,,Initial/Repeat/IceDrop.wav,3,NEW,C,,,3,1,0.418385,0,4,4,4,1,,
,,,,,,,,,,,,,2,5ffdddf6e8c3f83879f47ff8,001,2021-03-03_00h24.23.978,GuessTheSound,2020.2.10,MacIntel,60,,,,,,,,,,,,,,,Initial/NoRepeat/Sleighbells_B.wav,3,NEW,C,,,3,1,0.5522,0,5,5,5,1,,
,,,,,,,,,,,,,2,5ffdddf6e8c3f83879f47ff8,001,2021-03-03_00h24.23.978,GuessTheSound,2020.2.10,MacIntel,60,,,,,,,,,,,,,,,Growl_G.wav,3,NEW,C,,,3,1,0.68502,0,6,6,6,1,,
,,,,,,,,,,,,,2,5ffdddf6e8c3f83879f47ff8,001,2021-03-03_00h24.23.978,GuessTheSound,2020.2.10,MacIntel,60,,,,,,,,,,,,,,,Initial/Doubled/Chicken_A.wav,3,NEW,C,,,3,1,1.56786,0,7,7,7,1,,
,,,,,,,,,,,,,2,5ffdddf6e8c3f83879f47ff8,001,2021-03-03_00h24.23.978,GuessTheSound,2020.2.10,MacIntel,60,,,,,,,,,,,,,,,Test/Foils/Slurp.wav,3,NEW,C,,,3,1,0.800895,0,8,8,8,1,,
,,,,,,,,,,,,,2,5ffdddf6e8c3f83879f47ff8,001,2021-03-03_00h24.23.978,GuessTheSound,2020.2.10,MacIntel,60,,,,,,,,,,,,,,,CarStart_E.wav,2,SIMILAR,C,,,2,1,1.01746,0,9,9,9,1,,
,,,,,,,,,,,,,2,5ffdddf6e8c3f83879f47ff8,001,2021-03-03_00h24.23.978,GuessTheSound,2020.2.10,MacIntel,60,,,,,,,,,,,,,,,Initial/Repeat/Printer.wav,3,NEW,C,,,3,1,0.534795,0,10,10,10,1,,
,,,,,,,,,,,,,2,5ffdddf6e8c3f83879f47ff8,001,2021-03-03_00h24.23.978,GuessTheSound,2020.2.10,MacIntel,60,,,,,,,,,,,,,,,Test/Foils/Bowlingpins.wav,3,NEW,C,,,2,0,0.633675,0,11,11,11,1,,
,,,,,,,,,,,,,2,5ffdddf6e8c3f83879f47ff8,001,2021-03-03_00h24.23.978,GuessTheSound,2020.2.10,MacIntel,60,,,,,,,,,,,,,,,Initial/NoRepeat/Fireworks.wav,3,NEW,C,,,3,1,0.352085,0,12,12,12,1,,
,,,,,,,,,,,,,2,5ffdddf6e8c3f83879f47ff8,001,2021-03-03_00h24.23.978,GuessTheSound,2020.2.10,MacIntel,60,,,,,,,,,,,,,,,Initial/Repeat/Howl.wav,3,NEW,C,,,3,1,0.35157,0,13,13,13,1,,
,,,,,,,,,,,,,2,5ffdddf6e8c3f83879f47ff8,001,2021-03-03_00h24.23.978,GuessTheSound,2020.2.10,MacIntel,60,,,,,,,,,,,,,,,Goat_D.wav,3,NEW,C,,,3,1,0.31641,0,14,14,14,1,,
,,,,,,,,,,,,,1,5ffdddf6e8c3f83879f47ff8,001,2021-03-03_00h24.23.978,GuessTheSound,2020.2.10,MacIntel,60,,,,,,,,,,,,,,,Test/Foils/Horse.wav,1,OLD,C,,,2,0,1.501025,0,15,15,15,1,,
,,,,,,,,,,,,,2,5ffdddf6e8c3f83879f47ff8,001,2021-03-03_00h24.23.978,GuessTheSound,2020.2.10,MacIntel,60,,,,,,,,,,,,,,,Laugh_C.wav,3,NEW,C,,,3,1,0.36747,0,16,16,16,1,,
,,,,,,,,,,,,,2,5ffdddf6e8c3f83879f47ff8,001,2021-03-03_00h24.23.978,GuessTheSound,2020.2.10,MacIntel,60,,,,,,,,,,,,,,,Test/Lures/Bubbles_B.wav,2,SIMILAR,C,,,2,1,1.01758,0,17,17,17,1,,
,,,,,,,,,,,,,2,5ffdddf6e8c3f83879f47ff8,001,2021-03-03_00h24.23.978,GuessTheSound,2020.2.10,MacIntel,60,,,,,,,,,,,,,,,Footsteps_G.wav,3,NEW,C,,,3,1,0.55021,0,18,18,18,1,,
,,,,,,,,,,,,,2,5ffdddf6e8c3f83879f47ff8,001,2021-03-03_00h24.23.978,GuessTheSound,2020.2.10,MacIntel,60,,,,,,,,,,,,,,,Duck_C.wav,3,NEW,C,,,2,0,0.584185,0,19,19,19,1,,
,,,,,,,,,,,,,2,5ffdddf6e8c3f83879f47ff8,001,2021-03-03_00h24.23.978,GuessTheSound,2020.2.10,MacIntel,60,,,,,,,,,,,,,,,Initial/NoRepeat/Cow.wav,3,NEW,C,,,3,1,0.38375,0,20,20,20,1,,
,,,,,,,,,,,,,2,5ffdddf6e8c3f83879f47ff8,001,2021-03-03_00h24.23.978,GuessTheSound,2020.2.10,MacIntel,60,,,,,,,,,,,,,,,Test/Foils/Airhorn.wav,3,NEW,C,,,3,1,0.334235,0,21,21,21,1,,
,,,,,,,,,,,,,1,5ffdddf6e8c3f83879f47ff8,001,2021-03-03_00h24.23.978,GuessTheSound,2020.2.10,MacIntel,60,,,,,,,,,,,,,,,Initial/Repeat/Printer.wav,1,OLD,C,,,1,1,1.353495,0,22,22,22,1,,
,,,,,,,,,,,,,1,5ffdddf6e8c3f83879f47ff8,001,2021-03-03_00h24.23.978,GuessTheSound,2020.2.10,MacIntel,60,,,,,,,,,,,,,,,Initial/NoRepeat/Sleighbells_B.wav,1,OLD,C,,,1,1,0.350415,0,23,23,23,1,,
,,,,,,,,,,,,,2,5ffdddf6e8c3f83879f47ff8,001,2021-03-03_00h24.23.978,GuessTheSound,2020.2.10,MacIntel,60,,,,,,,,,,,,,,,Test/Foils/Camera.wav,3,NEW,C,,,3,1,0.402145,0,24,24,24,1,,
,,,,,,,,,,,,,2,5ffdddf6e8c3f83879f47ff8,001,2021-03-03_00h24.23.978,GuessTheSound,2020.2.10,MacIntel,60,,,,,,,,,,,,,,,Growl_H.wav,2,SIMILAR,C,,,1,0,0.476705,0,25,25,25,1,,
,,,,,,,,,,,,,2,5ffdddf6e8c3f83879f47ff8,001,2021-03-03_00h24.23.978,GuessTheSound,2020.2.10,MacIntel,60,,,,,,,,,,,,,,,Whistle_A.wav,3,NEW,C,,,3,1,0.10369,0,26,26,26,1,,
,,,,,,,,,,,,,2,5ffdddf6e8c3f83879f47ff8,001,2021-03-03_00h24.23.978,GuessTheSound,2020.2.10,MacIntel,60,,,,,,,,,,,,,,,Piano_D.wav,3,NEW,C,,,3,1,0.517355,0,27,27,27,1,,
,,,,,,,,,,,,,2,5ffdddf6e8c3f83879f47ff8,001,2021-03-03_00h24.23.978,GuessTheSound,2020.2.10,MacIntel,60,,,,,,,,,,,,,,,Coin_D.wav,3,NEW,C,,,3,1,0.316915,0,28,28,28,1,,
,,,,,,,,,,,,,2,5ffdddf6e8c3f83879f47ff8,001,2021-03-03_00h24.23.978,GuessTheSound,2020.2.10,MacIntel,60,,,,,,,,,,,,,,,Bird_F.wav,2,SIMILAR,C,,,2,1,1.367085,0,29,29,29,1,,
,,,,,,,,,,,,,2,5ffdddf6e8c3f83879f47ff8,001,2021-03-03_00h24.23.978,GuessTheSound,2020.2.10,MacIntel,60,,,,,,,,,,,,,,,Initial/Repeat/PaperRip.wav,3,NEW,C,,,3,1,0.51127,0,30,30,30,1,,
,,,,,,,,,,,,,1,5ffdddf6e8c3f83879f47ff8,001,2021-03-03_00h24.23.978,GuessTheSound,2020.2.10,MacIntel,60,,,,,,,,,,,,,,,Test/Foils/Slurp.wav,1,OLD,C,,,1,1,0.64939,0,31,31,31,1,,
,,,,,,,,,,,,,1,5ffdddf6e8c3f83879f47ff8,001,2021-03-03_00h24.23.978,GuessTheSound,2020.2.10,MacIntel,60,,,,,,,,,,,,,,,Initial/Repeat/Howl.wav,1,OLD,C,,,1,1,0.503345,0,32,32,32,1,,
,,,,,,,,,,,,,1,5ffdddf6e8c3f83879f47ff8,001,2021-03-03_00h24.23.978,GuessTheSound,2020.2.10,MacIntel,60,,,,,,,,,,,,,,,Initial/Repeat/IceDrop.wav,1,OLD,C,,,1,1,0.38331,0,33,33,33,1,,
,,,,,,,,,,,,,2,5ffdddf6e8c3f83879f47ff8,001,2021-03-03_00h24.23.978,GuessTheSound,2020.2.10,MacIntel,60,,,,,,,,,,,,,,,Pour_E.wav,3,NEW,C,,,3,1,0.34945,0,34,34,34,1,,
,,,,,,,,,,,,,1,5ffdddf6e8c3f83879f47ff8,001,2021-03-03_00h24.23.978,GuessTheSound,2020.2.10,MacIntel,60,,,,,,,,,,,,,,,Initial/NoRepeat/Fireworks.wav,1,OLD,C,,,1,1,0.317545,0,35,35,35,1,,
,,,,,,,,,,,,,2,5ffdddf6e8c3f83879f47ff8,001,2021-03-03_00h24.23.978,GuessTheSound,2020.2.10,MacIntel,60,,,,,,,,,,,,,,,Footsteps_F.wav,2,SIMILAR,C,,,1,0,0.10089,0,36,36,36,1,,
,,,,,,,,,,,,,1,5ffdddf6e8c3f83879f47ff8,001,2021-03-03_00h24.23.978,GuessTheSound,2020.2.10,MacIntel,60,,,,,,,,,,,,,,,Initial/Doubled/Chicken_A.wav,1,OLD,C,,,2,0,0.586405,0,37,37,37,1,,
,,,,,,,,,,,,,2,5ffdddf6e8c3f83879f47ff8,001,2021-03-03_00h24.23.978,GuessTheSound,2020.2.10,MacIntel,60,,,,,,,,,,,,,,,Test/Foils/Bullfrog.wav,3,NEW,C,,,3,1,0.30121,0,38,38,38,1,,
,,,,,,,,,,,,,1,5ffdddf6e8c3f83879f47ff8,001,2021-03-03_00h24.23.978,GuessTheSound,2020.2.10,MacIntel,60,,,,,,,,,,,,,,,Test/Foils/Bowlingpins.wav,1,OLD,C,,,3,0,0.602995,0,39,39,39,1,,
,,,,,,,,,,,,,2,5ffdddf6e8c3f83879f47ff8,001,2021-03-03_00h24.23.978,GuessTheSound,2020.2.10,MacIntel,60,,,,,,,,,,,,,,,Initial/NoRepeat/Helicopter_A.wav,3,NEW,C,,,3,1,0.000895,0,40,40,40,1,,
,,,,,,,,,,,,,2,5ffdddf6e8c3f83879f47ff8,001,2021-03-03_00h24.23.978,GuessTheSound,2020.2.10,MacIntel,60,,,,,,,,,,,,,,,Goat_E.wav,2,SIMILAR,C,,,1,0,0.46887,0,41,41,41,1,,
,,,,,,,,,,,,,2,5ffdddf6e8c3f83879f47ff8,001,2021-03-03_00h24.23.978,GuessTheSound,2020.2.10,MacIntel,60,,,,,,,,,,,,,,,Initial/Doubled/HairDryer_A.wav,3,NEW,C,,,3,1,0.427815,0,42,42,42,1,,
,,,,,,,,,,,,,2,5ffdddf6e8c3f83879f47ff8,001,2021-03-03_00h24.23.978,GuessTheSound,2020.2.10,MacIntel,60,,,,,,,,,,,,,,,Duck_D.wav,2,SIMILAR,C,,,1,0,1.1834,0,43,43,43,1,,
,,,,,,,,,,,,,1,5ffdddf6e8c3f83879f47ff8,001,2021-03-03_00h24.23.978,GuessTheSound,2020.2.10,MacIntel,60,,,,,,,,,,,,,,,Initial/Repeat/PaperRip.wav,1,OLD,C,,,1,1,0.31746,0,44,44,44,1,,
,,,,,,,,,,,,,2,5ffdddf6e8c3f83879f47ff8,001,2021-03-03_00h24.23.978,GuessTheSound,2020.2.10,MacIntel,60,,,,,,,,,,,,,,,Dog_E.wav,3,NEW,C,,,3,1,0.366595,0,45,45,45,1,,
,,,,,,,,,,,,,1,5ffdddf6e8c3f83879f47ff8,001,2021-03-03_00h24.23.978,GuessTheSound,2020.2.10,MacIntel,60,,,,,,,,,,,,,,,Test/Foils/Camera.wav,1,OLD,C,,,2,0,1.88606,0,46,46,46,1,,
,,,,,,,,,,,,,2,5ffdddf6e8c3f83879f47ff8,001,2021-03-03_00h24.23.978,GuessTheSound,2020.2.10,MacIntel,60,,,,,,,,,,,,,,,Laugh_F.wav,2,SIMILAR,C,,,2,1,0.45903,0,47,47,47,1,,
,,,,,,,,,,,,,2,5ffdddf6e8c3f83879f47ff8,001,2021-03-03_00h24.23.978,GuessTheSound,2020.2.10,MacIntel,60,,,,,,,,,,,,,,,Initial/Repeat/Sneeze_B.wav,3,NEW,C,,,3,1,0.917895,0,48,48,48,1,,
,,,,,,,,,,,,,1,5ffdddf6e8c3f83879f47ff8,001,2021-03-03_00h24.23.978,GuessTheSound,2020.2.10,MacIntel,60,,,,,,,,,,,,,,,Initial/NoRepeat/Cow.wav,1,OLD,C,,,2,0,0.70201,0,49,49,49,1,,
,,,,,,,,,,,,,2,5ffdddf6e8c3f83879f47ff8,001,2021-03-03_00h24.23.978,GuessTheSound,2020.2.10,MacIntel,60,,,,,,,,,,,,,,,Test/Foils/Donkey.wav,3,NEW,C,,,2,0,0.426035,0,50,50,50,1,,
,,,,,,,,,,,,,2,5ffdddf6e8c3f83879f47ff8,001,2021-03-03_00h24.23.978,GuessTheSound,2020.2.10,MacIntel,60,,,,,,,,,,,,,,,Coin_E.wav,2,SIMILAR,C,,,2,1,0.640435,0,51,51,51,1,,
,,,,,,,,,,,,,2,5ffdddf6e8c3f83879f47ff8,001,2021-03-03_00h24.23.978,GuessTheSound,2020.2.10,MacIntel,60,,,,,,,,,,,,,,,Initial/Repeat/Buzz.wav,3,NEW,C,,,1,0,0.30206,0,52,52,52,1,,
,,,,,,,,,,,,,1,5ffdddf6e8c3f83879f47ff8,001,2021-03-03_00h24.23.978,GuessTheSound,2020.2.10,MacIntel,60,,,,,,,,,,,,,,,Piano_D.wav,1,OLD,C,,,1,1,0.28138,0,53,53,53,1,,
,,,,,,,,,,,,,2,5ffdddf6e8c3f83879f47ff8,001,2021-03-03_00h24.23.978,GuessTheSound,2020.2.10,MacIntel,60,,,,,,,,,,,,,,,Initial/NoRepeat/Hammer_A.wav,3,NEW,C,,,3,1,0.24972,0,54,54,54,1,,
,,,,,,,,,,,,,1,5ffdddf6e8c3f83879f47ff8,001,2021-03-03_00h24.23.978,GuessTheSound,2020.2.10,MacIntel,60,,,,,,,,,,,,,,,Test/Foils/Airhorn.wav,1,OLD,C,,,1,1,0.251075,0,55,55,55,1,,
,,,,,,,,,,,,,2,5ffdddf6e8c3f83879f47ff8,001,2021-03-03_00h24.23.978,GuessTheSound,2020.2.10,MacIntel,60,,,,,,,,,,,,,,,Whistle_C.wav,2,SIMILAR,C,,,3,0,0.426295,0,56,56,56,1,,
,,,,,,,,,,,,,2,5ffdddf6e8c3f83879f47ff8,001,2021-03-03_00h24.23.978,GuessTheSound,2020.2.10,MacIntel,60,,,,,,,,,,,,,,,Faucet_D.wav,3,NEW,C,,,3,1,0.766705,0,57,57,57,1,,
,,,,,,,,,,,,,2,5ffdddf6e8c3f83879f47ff8,001,2021-03-03_00h24.23.978,GuessTheSound,2020.2.10,MacIntel,60,,,,,,,,,,,,,,,Pour_C.wav,2,SIMILAR,C,,,2,1,0.434735,0,58,58,58,1,,
,,,,,,,,,,,,,2,5ffdddf6e8c3f83879f47ff8,001,2021-03-03_00h24.23.978,GuessTheSound,2020.2.10,MacIntel,60,,,,,,,,,,,,,,,Crow_B.wav,3,NEW,C,,,2,0,2.058035,0,59,59,59,1,,
,,,,,,,,,,,,,2,5ffdddf6e8c3f83879f47ff8,001,2021-03-03_00h24.23.978,GuessTheSound,2020.2.10,MacIntel,60,,,,,,,,,,,,,,,Initial/Repeat/Trumpet_B.wav,3,NEW,C,,,3,1,0.325815,0,60,60,60,1,,
,,,,,,,,,,,,,1,5ffdddf6e8c3f83879f47ff8,001,2021-03-03_00h24.23.978,GuessTheSound,2020.2.10,MacIntel,60,,,,,,,,,,,,,,,Test/Foils/Bullfrog.wav,1,OLD,C,,,1,1,0.402765,0,61,61,61,1,,
,,,,,,,,,,,,,1,5ffdddf6e8c3f83879f47ff8,001,2021-03-03_00h24.23.978,GuessTheSound,2020.2.10,MacIntel,60,,,,,,,,,,,,,,,Initial/NoRepeat/Helicopter_A.wav,1,OLD,C,,,1,1,0.435005,0,62,62,62,1,,
,,,,,,,,,,,,,2,5ffdddf6e8c3f83879f47ff8,001,2021-03-03_00h24.23.978,GuessTheSound,2020.2.10,MacIntel,60,,,,,,,,,,,,,,,Elephant_C.wav,3,NEW,C,,,1,0,0.31072,0,63,63,63,1,,
,,,,,,,,,,,,,1,5ffdddf6e8c3f83879f47ff8,001,2021-03-03_00h24.23.978,GuessTheSound,2020.2.10,MacIntel,60,,,,,,,,,,,,,,,Initial/Repeat/Sneeze_B.wav,1,OLD,C,,,1,1,0.31694,0,64,64,64,1,,
,,,,,,,,,,,,,2,5ffdddf6e8c3f83879f47ff8,001,2021-03-03_00h24.23.978,GuessTheSound,2020.2.10,MacIntel,60,,,,,,,,,,,,,,,Chime_B.wav,3,NEW,C,,,3,1,0.28388,0,65,65,65,1,,
,,,,,,,,,,,,,2,5ffdddf6e8c3f83879f47ff8,001,2021-03-03_00h24.23.978,GuessTheSound,2020.2.10,MacIntel,60,,,,,,,,,,,,,,,Phone_D.wav,3,NEW,C,,,3,1,0.419295,0,66,66,66,1,,
,,,,,,,,,,,,,1,5ffdddf6e8c3f83879f47ff8,001,2021-03-03_00h24.23.978,GuessTheSound,2020.2.10,MacIntel,60,,,,,,,,,,,,,,,Initial/Doubled/HairDryer_A.wav,1,OLD,C,,,1,1,0.451035,0,67,67,67,1,,
,,,,,,,,,,,,,2,5ffdddf6e8c3f83879f47ff8,001,2021-03-03_00h24.23.978,GuessTheSound,2020.2.10,MacIntel,60,,,,,,,,,,,,,,,Initial/NoRepeat/Puff_A.wav,3,NEW,C,,,3,1,0.274325,0,68,68,68,1,,
,,,,,,,,,,,,,2,5ffdddf6e8c3f83879f47ff8,001,2021-03-03_00h24.23.978,GuessTheSound,2020.2.10,MacIntel,60,,,,,,,,,,,,,,,Dog_F.wav,2,SIMILAR,C,,,1,0,0.309215,0,69,69,69,1,,
,,,,,,,,,,,,,1,5ffdddf6e8c3f83879f47ff8,001,2021-03-03_00h24.23.978,GuessTheSound,2020.2.10,MacIntel,60,,,,,,,,,,,,,,,Test/Foils/Donkey.wav,1,OLD,C,,,1,1,0.283715,0,70,70,70,1,,
,,,,,,,,,,,,,2,5ffdddf6e8c3f83879f47ff8,001,2021-03-03_00h24.23.978,GuessTheSound,2020.2.10,MacIntel,60,,,,,,,,,,,,,,,Initial/NoRepeat/Toilet_B.wav,3,NEW,C,,,3,1,0.45032,0,71,71,71,1,,
,,,,,,,,,,,,,2,5ffdddf6e8c3f83879f47ff8,001,2021-03-03_00h24.23.978,GuessTheSound,2020.2.10,MacIntel,60,,,,,,,,,,,,,,,Initial/Doubled/Writing_A.wav,3,NEW,C,,,3,1,0.56704,0,72,72,72,1,,
,,,,,,,,,,,,,2,5ffdddf6e8c3f83879f47ff8,001,2021-03-03_00h24.23.978,GuessTheSound,2020.2.10,MacIntel,60,,,,,,,,,,,,,,,Initial/Repeat/Cello.wav,3,NEW,C,,,3,1,0.051805,0,73,73,73,1,,
,,,,,,,,,,,,,2,5ffdddf6e8c3f83879f47ff8,001,2021-03-03_00h24.23.978,GuessTheSound,2020.2.10,MacIntel,60,,,,,,,,,,,,,,,Crow_A.wav,2,SIMILAR,C,,,2,1,1.47017,0,74,74,74,1,,
,,,,,,,,,,,,,1,5ffdddf6e8c3f83879f47ff8,001,2021-03-03_00h24.23.978,GuessTheSound,2020.2.10,MacIntel,60,,,,,,,,,,,,,,,Initial/NoRepeat/Hammer_A.wav,1,OLD,C,,,3,0,0.340915,0,75,75,75,1,,
,,,,,,,,,,,,,2,5ffdddf6e8c3f83879f47ff8,001,2021-03-03_00h24.23.978,GuessTheSound,2020.2.10,MacIntel,60,,,,,,,,,,,,,,,Initial/Doubled/Cuckoo_A.wav,3,NEW,C,,,3,1,0.31756,0,76,76,76,1,,
,,,,,,,,,,,,,1,5ffdddf6e8c3f83879f47ff8,001,2021-03-03_00h24.23.978,GuessTheSound,2020.2.10,MacIntel,60,,,,,,,,,,,,,,,Initial/Repeat/Buzz.wav,1,OLD,C,,,1,1,0.42649,0,77,77,77,1,,
,,,,,,,,,,,,,2,5ffdddf6e8c3f83879f47ff8,001,2021-03-03_00h24.23.978,GuessTheSound,2020.2.10,MacIntel,60,,,,,,,,,,,,,,,Siren_E.wav,3,NEW,C,,,3,1,0.28409,0,78,78,78,1,,
,,,,,,,,,,,,,1,5ffdddf6e8c3f83879f47ff8,001,2021-03-03_00h24.23.978,GuessTheSound,2020.2.10,MacIntel,60,,,,,,,,,,,,,,,Initial/Repeat/Trumpet_B.wav,1,OLD,C,,,1,1,0.350535,0,79,79,79,1,,
,,,,,,,,,,,,,2,5ffdddf6e8c3f83879f47ff8,001,2021-03-03_00h24.23.978,GuessTheSound,2020.2.10,MacIntel,60,,,,,,,,,,,,,,,Test/Foils/Wind_B.wav,3,NEW,C,,,3,1,0.283945,0,80,80,80,1,,
,,,,,,,,,,,,,2,5ffdddf6e8c3f83879f47ff8,001,2021-03-03_00h24.23.978,GuessTheSound,2020.2.10,MacIntel,60,,,,,,,,,,,,,,,Initial/Doubled/Cat_A.wav,3,NEW,C,,,3,1,0.28417,0,81,81,81,1,,
,,,,,,,,,,,,,2,5ffdddf6e8c3f83879f47ff8,001,2021-03-03_00h24.23.978,GuessTheSound,2020.2.10,MacIntel,60,,,,,,,,,,,,,,,Phone_E.wav,2,SIMILAR,C,,,1,0,0.33424,0,82,82,82,1,,
,,,,,,,,,,,,,2,5ffdddf6e8c3f83879f47ff8,001,2021-03-03_00h24.23.978,GuessTheSound,2020.2.10,MacIntel,60,,,,,,,,,,,,,,,Chomp_F.wav,3,NEW,C,,,3,1,0.2679,0,83,83,83,1,,
,,,,,,,,,,,,,2,5ffdddf6e8c3f83879f47ff8,001,2021-03-03_00h24.23.978,GuessTheSound,2020.2.10,MacIntel,60,,,,,,,,,,,,,,,Elephant_D.wav,2,SIMILAR,C,,,1,0,0.623755,0,84,84,84,1,,
,,,,,,,,,,,,,2,5ffdddf6e8c3f83879f47ff8,001,2021-03-03_00h24.23.978,GuessTheSound,2020.2.10,MacIntel,60,,,,,,,,,,,,,,,Initial/Repeat/Cup.wav,3,NEW,C,,,2,0,1.751245,0,85,85,85,1,,
,,,,,,,,,,,,,2,5ffdddf6e8c3f83879f47ff8,001,2021-03-03_00h24.23.978,GuessTheSound,2020.2.10,MacIntel,60,,,,,,,,,,,,,,,Chime_A.wav,2,SIMILAR,C,,,2,1,0.28346,0,86,86,86,1,,
,,,,,,,,,,,,,2,5ffdddf6e8c3f83879f47ff8,001,2021-03-03_00h24.23.978,GuessTheSound,2020.2.10,MacIntel,60,,,,,,,,,,,,,,,Initial/NoRepeat/Droplet_B.wav,3,NEW,C,,,3,1,0.31848,0,87,87,87,1,,
,,,,,,,,,,,,,2,5ffdddf6e8c3f83879f47ff8,001,2021-03-03_00h24.23.978,GuessTheSound,2020.2.10,MacIntel,60,,,,,,,,,,,,,,,Faucet_C.wav,2,SIMILAR,C,,,3,0,0.26741,0,88,88,88,1,,
,,,,,,,,,,,,,1,5ffdddf6e8c3f83879f47ff8,001,2021-03-03_00h24.23.978,GuessTheSound,2020.2.10,MacIntel,60,,,,,,,,,,,,,,,Initial/NoRepeat/Puff_A.wav,1,OLD,C,,,2,0,0.685135,0,89,89,89,1,,
,,,,,,,,,,,,,2,5ffdddf6e8c3f83879f47ff8,001,2021-03-03_00h24.23.978,GuessTheSound,2020.2.10,MacIntel,60,,,,,,,,,,,,,,,Clap_B.wav,3,NEW,C,,,2,0,0.56956,0,90,90,90,1,,
,,,,,,,,,,,,,1,5ffdddf6e8c3f83879f47ff8,001,2021-03-03_00h24.23.978,GuessTheSound,2020.2.10,MacIntel,60,,,,,,,,,,,,,,,Initial/Repeat/Cello.wav,1,OLD,C,,,1,1,0.424345,0,91,91,91,1,,
,,,,,,,,,,,,,2,5ffdddf6e8c3f83879f47ff8,001,2021-03-03_00h24.23.978,GuessTheSound,2020.2.10,MacIntel,60,,,,,,,,,,,,,,,Initial/NoRepeat/Mosquito_B.wav,3,NEW,C,,,3,1,0.2829,0,92,92,92,1,,
,,,,,,,,,,,,,2,5ffdddf6e8c3f83879f47ff8,001,2021-03-03_00h24.23.978,GuessTheSound,2020.2.10,MacIntel,60,,,,,,,,,,,,,,,Writing_C.wav,2,SIMILAR,C,,,1,0,0.534675,0,93,93,93,1,,
,,,,,,,,,,,,,2,5ffdddf6e8c3f83879f47ff8,001,2021-03-03_00h24.23.978,GuessTheSound,2020.2.10,MacIntel,60,,,,,,,,,,,,,,,Test/Lures/Guitar_B.wav,3,NEW,C,,,3,1,1.23469,0,94,94,94,1,,
,,,,,,,,,,,,,1,5ffdddf6e8c3f83879f47ff8,001,2021-03-03_00h24.23.978,GuessTheSound,2020.2.10,MacIntel,60,,,,,,,,,,,,,,,Initial/NoRepeat/Toilet_B.wav,1,OLD,C,,,1,1,0.03406,0,95,95,95,1,,
,,,,,,,,,,,,,2,5ffdddf6e8c3f83879f47ff8,001,2021-03-03_00h24.23.978,GuessTheSound,2020.2.10,MacIntel,60,,,,,,,,,,,,,,,Initial/Repeat/Bagpipe.wav,3,NEW,C,,,3,1,0.317255,0,96,96,96,1,,
,,,,,,,,,,,,,1,5ffdddf6e8c3f83879f47ff8,001,2021-03-03_00h24.23.978,GuessTheSound,2020.2.10,MacIntel,60,,,,,,,,,,,,,,,Initial/Doubled/Cuckoo_A.wav,1,OLD,C,,,1,1,0.667455,0,97,97,97,1,,
,,,,,,,,,,,,,1,5ffdddf6e8c3f83879f47ff8,001,2021-03-03_00h24.23.978,GuessTheSound,2020.2.10,MacIntel,60,,,,,,,,,,,,,,,Test/Foils/Wind_B.wav,1,OLD,C,,,1,1,0.537765,0,98,98,98,1,,
,,,,,,,,,,,,,2,5ffdddf6e8c3f83879f47ff8,001,2021-03-03_00h24.23.978,GuessTheSound,2020.2.10,MacIntel,60,,,,,,,,,,,,,,,Cough_G.wav,3,NEW,C,,,3,1,0.658755,0,99,99,99,1,,
,,,,,,,,,,,,,2,5ffdddf6e8c3f83879f47ff8,001,2021-03-03_00h24.23.978,GuessTheSound,2020.2.10,MacIntel,60,,,,,,,,,,,,,,,Initial/Repeat/ManWhistle.wav,3,NEW,C,,,3,1,0.404155,0,100,100,100,1,,
,,,,,,,,,,,,,2,5ffdddf6e8c3f83879f47ff8,001,2021-03-03_00h24.23.978,GuessTheSound,2020.2.10,MacIntel,60,,,,,,,,,,,,,,,Chomp_E.wav,2,SIMILAR,C,,,1,0,0.584855,0,101,101,101,1,,
,,,,,,,,,,,,,2,5ffdddf6e8c3f83879f47ff8,001,2021-03-03_00h24.23.978,GuessTheSound,2020.2.10,MacIntel,60,,,,,,,,,,,,,,,Siren_B.wav,2,SIMILAR,C,,,1,0,0.451285,0,102,102,102,1,,
,,,,,,,,,,,,,2,5ffdddf6e8c3f83879f47ff8,001,2021-03-03_00h24.23.978,GuessTheSound,2020.2.10,MacIntel,60,,,,,,,,,,,,,,,Initial/NoRepeat/Thunder_A.wav,3,NEW,C,,,3,1,0.295515,0,103,103,103,1,,
,,,,,,,,,,,,,1,5ffdddf6e8c3f83879f47ff8,001,2021-03-03_00h24.23.978,GuessTheSound,2020.2.10,MacIntel,60,,,,,,,,,,,,,,,Initial/Doubled/Cat_A.wav,1,OLD,C,,,1,1,0.966725,0,104,104,104,1,,
,,,,,,,,,,,,,2,5ffdddf6e8c3f83879f47ff8,001,2021-03-03_00h24.23.978,GuessTheSound,2020.2.10,MacIntel,60,,,,,,,,,,,,,,,Snore_D.wav,3,NEW,C,,,3,1,0.729635,0,105,105,105,1,,
,,,,,,,,,,,,,1,5ffdddf6e8c3f83879f47ff8,001,2021-03-03_00h24.23.978,GuessTheSound,2020.2.10,MacIntel,60,,,,,,,,,,,,,,,Initial/Repeat/Cup.wav,1,OLD,C,,,1,1,0.61704,0,106,106,106,1,,
,,,,,,,,,,,,,2,5ffdddf6e8c3f83879f47ff8,001,2021-03-03_00h24.23.978,GuessTheSound,2020.2.10,MacIntel,60,,,,,,,,,,,,,,,Baby_F.wav,3,NEW,C,,,3,1,0.3676,0,107,107,107,1,,
,,,,,,,,,,,,,1,5ffdddf6e8c3f83879f47ff8,001,2021-03-03_00h24.23.978,GuessTheSound,2020.2.10,MacIntel,60,,,,,,,,,,,,,,,Initial/NoRepeat/Droplet_B.wav,1,OLD,C,,,1,1,0.600615,0,108,108,108,1,,
,,,,,,,,,,,,,2,5ffdddf6e8c3f83879f47ff8,001,2021-03-03_00h24.23.978,GuessTheSound,2020.2.10,MacIntel,60,,,,,,,,,,,,,,,Test/Foils/DialTone.wav,3,NEW,C,,,3,1,0.80337,0,109,109,109,1,,
,,,,,,,,,,,,,2,5ffdddf6e8c3f83879f47ff8,001,2021-03-03_00h24.23.978,GuessTheSound,2020.2.10,MacIntel,60,,,,,,,,,,,,,,,Clap_C.wav,2,SIMILAR,C,,,2,1,0.95095,0,110,110,110,1,,
,,,,,,,,,,,,,2,5ffdddf6e8c3f83879f47ff8,001,2021-03-03_00h24.23.978,GuessTheSound,2020.2.10,MacIntel,60,,,,,,,,,,,,,,,Test/Foils/Heartbeat.wav,3,NEW,C,,,3,1,0.34632,0,111,111,111,1,,
,,,,,,,,,,,,,1,5ffdddf6e8c3f83879f47ff8,001,2021-03-03_00h24.23.978,GuessTheSound,2020.2.10,MacIntel,60,,,,,,,,,,,,,,,Test/Lures/Guitar_B.wav,1,OLD,C,,,1,1,0.785865,0,112,112,112,1,,
,,,,,,,,,,,,,2,5ffdddf6e8c3f83879f47ff8,001,2021-03-03_00h24.23.978,GuessTheSound,2020.2.10,MacIntel,60,,,,,,,,,,,,,,,Test/Foils/Typing.wav,3,NEW,C,,,1,0,1.335465,0,113,113,113,1,,
,,,,,,,,,,,,,1,5ffdddf6e8c3f83879f47ff8,001,2021-03-03_00h24.23.978,GuessTheSound,2020.2.10,MacIntel,60,,,,,,,,,,,,,,,Initial/NoRepeat/Mosquito_B.wav,1,OLD,C,,,1,1,0.11756,0,114,114,114,1,,
,,,,,,,,,,,,,2,5ffdddf6e8c3f83879f47ff8,001,2021-03-03_00h24.23.978,GuessTheSound,2020.2.10,MacIntel,60,,,,,,,,,,,,,,,Initial/Repeat/Airplane_B.wav,3,NEW,C,,,2,0,1.350105,0,115,115,115,1,,
,,,,,,,,,,,,,1,5ffdddf6e8c3f83879f47ff8,001,2021-03-03_00h24.23.978,GuessTheSound,2020.2.10,MacIntel,60,,,,,,,,,,,,,,,Initial/Repeat/ManWhistle.wav,1,OLD,C,,,2,0,0.38425,0,116,116,116,1,,
,,,,,,,,,,,,,2,5ffdddf6e8c3f83879f47ff8,001,2021-03-03_00h24.23.978,GuessTheSound,2020.2.10,MacIntel,60,,,,,,,,,,,,,,,Test/Foils/Steam.wav,3,NEW,C,,,2,0,0.28455,0,117,117,117,1,,
,,,,,,,,,,,,,2,5ffdddf6e8c3f83879f47ff8,001,2021-03-03_00h24.23.978,GuessTheSound,2020.2.10,MacIntel,60,,,,,,,,,,,,,,,Baby_E.wav,2,SIMILAR,C,,,2,1,0.33633,0,118,118,118,1,,
,,,,,,,,,,,,,1,5ffdddf6e8c3f83879f47ff8,001,2021-03-03_00h24.23.978,GuessTheSound,2020.2.10,MacIntel,60,,,,,,,,,,,,,,,Initial/Repeat/Bagpipe.wav,1,OLD,C,,,2,0,0.424435,0,119,119,119,1,,
,,,,,,,,,,,,,2,5ffdddf6e8c3f83879f47ff8,001,2021-03-03_00h24.23.978,GuessTheSound,2020.2.10,MacIntel,60,,,,,,,,,,,,,,,Cough_H.wav,2,SIMILAR,C,,,2,1,0.277005,0,120,120,120,1,,
,,,,,,,,,,,,,1,5ffdddf6e8c3f83879f47ff8,001,2021-03-03_00h24.23.978,GuessTheSound,2020.2.10,MacIntel,60,,,,,,,,,,,,,,,Initial/Repeat/Airplane_B.wav,1,OLD,C,,,3,0,1.45088,0,121,121,121,1,,
,,,,,,,,,,,,,1,5ffdddf6e8c3f83879f47ff8,001,2021-03-03_00h24.23.978,GuessTheSound,2020.2.10,MacIntel,60,,,,,,,,,,,,,,,Test/Foils/DialTone.wav,1,OLD,C,,,3,0,0.303425,0,122,122,122,1,,
,,,,,,,,,,,,,1,5ffdddf6e8c3f83879f47ff8,001,2021-03-03_00h24.23.978,GuessTheSound,2020.2.10,MacIntel,60,,,,,,,,,,,,,,,Initial/NoRepeat/Thunder_A.wav,1,OLD,C,,,1,1,0.20104,0,123,123,123,1,,
,,,,,,,,,,,,,1,5ffdddf6e8c3f83879f47ff8,001,2021-03-03_00h24.23.978,GuessTheSound,2020.2.10,MacIntel,60,,,,,,,,,,,,,,,Test/Foils/Typing.wav,1,OLD,C,,,1,1,0.685745,0,124,124,124,1,,
,,,,,,,,,,,,,2,5ffdddf6e8c3f83879f47ff8,001,2021-03-03_00h24.23.978,GuessTheSound,2020.2.10,MacIntel,60,,,,,,,,,,,,,,,Snore_E.wav,2,SIMILAR,C,,,1,0,0.2915,0,125,125,125,1,,
,,,,,,,,,,,,,1,5ffdddf6e8c3f83879f47ff8,001,2021-03-03_00h24.23.978,GuessTheSound,2020.2.10,MacIntel,60,,,,,,,,,,,,,,,Test/Foils/Heartbeat.wav,1,OLD,C,,,3,0,2.468715,0,126,126,126,1,,
,,,,,,,,,,,,,1,5ffdddf6e8c3f83879f47ff8,001,2021-03-03_00h24.23.978,GuessTheSound,2020.2.10,MacIntel,60,,,,,,,,,,,,,,,Test/Foils/Steam.wav,1,OLD,C,,,2,0,0.71978,0,127,127,127,1,,
,,,,,,,,,,,,,,5ffdddf6e8c3f83879f47ff8,001,2021-03-03_00h24.23.978,GuessTheSound,2020.2.10,MacIntel,60,,,,,,,,,,,,,,,,,,,,,,,,,,,,,space,14.596445
