VolumeContinueKey.keys,VolumeContinueKey.rt,HeadphoneContinueKey.keys,HeadphoneContinueKey.rt,CheckResp.keys,CheckResp.corr,CheckResp.rt,trials_2.thisRepN,trials_2.thisTrialN,trials_2.thisN,trials_2.thisIndex,trials_2.ran,File,Correct,participant,date,expName,psychopyVersion,OS,frameRate,key_resp_2.keys,key_resp_2.rt,key_resp_3.keys,key_resp_3.rt,WelcomeContinueKey2.keys,WelcomeContinueKey2.rt,Practice_resp.keys,Practice_resp.corr,Practice_resp.rt,PracticeLoop.thisRepN,PracticeLoop.thisTrialN,PracticeLoop.thisN,PracticeLoop.thisIndex,PracticeLoop.ran,SoundFile,SoundCorrect,Correct2,SoundType,Trial,StartTast.keys,StartTast.rt,key_resp.keys,key_resp.corr,key_resp.rt,trials.thisRepN,trials.thisTrialN,trials.thisN,trials.thisIndex,trials.ran
space,6.47937,space,8.85046,2,1,1.41196,0,0,0,2,1,Headphone/t2_1.wav,2,600563088f221175cc9eef01,2021-03-21_17h26.43.153,GuessTheSound,2020.2.10,Win32,60,,,,,,,,,,,,,,,,,,,,,,,,,,,,,
,,,,3,1,0.48434,0,1,1,5,1,Headphone/t3_2.wav,3,600563088f221175cc9eef01,2021-03-21_17h26.43.153,GuessTheSound,2020.2.10,Win32,60,,,,,,,,,,,,,,,,,,,,,,,,,,,,,
,,,,3,1,0.35941,0,2,2,4,1,Headphone/t3_1.wav,3,600563088f221175cc9eef01,2021-03-21_17h26.43.153,GuessTheSound,2020.2.10,Win32,60,,,,,,,,,,,,,,,,,,,,,,,,,,,,,
,,,,1,1,0.46526,0,3,3,0,1,Headphone/t1_1.wav,1,600563088f221175cc9eef01,2021-03-21_17h26.43.153,GuessTheSound,2020.2.10,Win32,60,,,,,,,,,,,,,,,,,,,,,,,,,,,,,
,,,,1,1,0.31887,0,4,4,1,1,Headphone/t1_2.wav,1,600563088f221175cc9eef01,2021-03-21_17h26.43.153,GuessTheSound,2020.2.10,Win32,60,,,,,,,,,,,,,,,,,,,,,,,,,,,,,
,,,,2,1,0.43869,0,5,5,3,1,Headphone/t2_2.wav,2,600563088f221175cc9eef01,2021-03-21_17h26.43.153,GuessTheSound,2020.2.10,Win32,60,,,,,,,,,,,,,,,,,,,,,,,,,,,,,
,,,,,,,,,,,,,,600563088f221175cc9eef01,2021-03-21_17h26.43.153,GuessTheSound,2020.2.10,Win32,60,space,19.860405,space,14.07006,space,4.785915,2,1,1.596085,0,0,0,0,1,Practice/Seagull_A.wav,2,3,NEW,Practice,,,,,,,,,,
,,,,,,,,,,,,,,600563088f221175cc9eef01,2021-03-21_17h26.43.153,GuessTheSound,2020.2.10,Win32,60,,,,,,,2,1,0.92289,0,1,1,1,1,Practice/Skid_B.wav,2,3,NEW,Practice,,,,,,,,,,
,,,,,,,,,,,,,,600563088f221175cc9eef01,2021-03-21_17h26.43.153,GuessTheSound,2020.2.10,Win32,60,,,,,,,1,1,0.71669,0,2,2,2,1,Practice/Seagull_A.wav,1,1,OLD,Practice,,,,,,,,,,
,,,,,,,,,,,,,,600563088f221175cc9eef01,2021-03-21_17h26.43.153,GuessTheSound,2020.2.10,Win32,60,,,,,,,2,1,0.703015,0,3,3,3,1,Practice/Gargle_A.wav,2,3,NEW,Practice,,,,,,,,,,
,,,,,,,,,,,,,,600563088f221175cc9eef01,2021-03-21_17h26.43.153,GuessTheSound,2020.2.10,Win32,60,,,,,,,2,1,0.396015,0,4,4,4,1,Practice/Gargle_B.wav,2,2,SIMILAR,Practice,,,,,,,,,,
,,,,,,,,,,,,,,600563088f221175cc9eef01,2021-03-21_17h26.43.153,GuessTheSound,2020.2.10,Win32,60,,,,,,,,,,,,,,,SoundMST/CarStart_E.wav,2,3,NEW,C,space,35.231025,2,1,1.39207,0,0,0,0,1
,,,,,,,,,,,,,,600563088f221175cc9eef01,2021-03-21_17h26.43.153,GuessTheSound,2020.2.10,Win32,60,,,,,,,,,,,,,,,SoundMST/Bird_C.wav,2,3,NEW,C,,,2,1,0.69532,0,1,1,1,1
,,,,,,,,,,,,,,600563088f221175cc9eef01,2021-03-21_17h26.43.153,GuessTheSound,2020.2.10,Win32,60,,,,,,,,,,,,,,,SoundMST/Bubbles_A.wav,2,3,NEW,C,,,2,1,0.573795,0,2,2,2,1
,,,,,,,,,,,,,,600563088f221175cc9eef01,2021-03-21_17h26.43.153,GuessTheSound,2020.2.10,Win32,60,,,,,,,,,,,,,,,SoundMST/Horse.wav,2,3,NEW,C,,,2,1,0.66657,0,3,3,3,1
,,,,,,,,,,,,,,600563088f221175cc9eef01,2021-03-21_17h26.43.153,GuessTheSound,2020.2.10,Win32,60,,,,,,,,,,,,,,,SoundMST/IceDrop.wav,2,3,NEW,C,,,2,1,0.50868,0,4,4,4,1
,,,,,,,,,,,,,,600563088f221175cc9eef01,2021-03-21_17h26.43.153,GuessTheSound,2020.2.10,Win32,60,,,,,,,,,,,,,,,SoundMST/Sleighbells_B.wav,2,3,NEW,C,,,2,1,0.571005,0,5,5,5,1
,,,,,,,,,,,,,,600563088f221175cc9eef01,2021-03-21_17h26.43.153,GuessTheSound,2020.2.10,Win32,60,,,,,,,,,,,,,,,SoundMST/Growl_G.wav,2,3,NEW,C,,,2,1,0.52781,0,6,6,6,1
,,,,,,,,,,,,,,600563088f221175cc9eef01,2021-03-21_17h26.43.153,GuessTheSound,2020.2.10,Win32,60,,,,,,,,,,,,,,,SoundMST/Chicken_A.wav,2,3,NEW,C,,,2,1,0.48504,0,7,7,7,1
,,,,,,,,,,,,,,600563088f221175cc9eef01,2021-03-21_17h26.43.153,GuessTheSound,2020.2.10,Win32,60,,,,,,,,,,,,,,,SoundMST/Slurp.wav,2,3,NEW,C,,,1,0,0.893605,0,8,8,8,1
,,,,,,,,,,,,,,600563088f221175cc9eef01,2021-03-21_17h26.43.153,GuessTheSound,2020.2.10,Win32,60,,,,,,,,,,,,,,,SoundMST/CarStart_D.wav,2,2,SIMILAR,C,,,1,0,0.39052,0,9,9,9,1
,,,,,,,,,,,,,,600563088f221175cc9eef01,2021-03-21_17h26.43.153,GuessTheSound,2020.2.10,Win32,60,,,,,,,,,,,,,,,SoundMST/Printer.wav,2,3,NEW,C,,,2,1,0.451605,0,10,10,10,1
,,,,,,,,,,,,,,600563088f221175cc9eef01,2021-03-21_17h26.43.153,GuessTheSound,2020.2.10,Win32,60,,,,,,,,,,,,,,,SoundMST/Bowlingpins.wav,2,3,NEW,C,,,2,1,0.32324,0,11,11,11,1
,,,,,,,,,,,,,,600563088f221175cc9eef01,2021-03-21_17h26.43.153,GuessTheSound,2020.2.10,Win32,60,,,,,,,,,,,,,,,SoundMST/Fireworks.wav,2,3,NEW,C,,,2,1,0.338925,0,12,12,12,1
,,,,,,,,,,,,,,600563088f221175cc9eef01,2021-03-21_17h26.43.153,GuessTheSound,2020.2.10,Win32,60,,,,,,,,,,,,,,,SoundMST/Howl.wav,2,3,NEW,C,,,2,1,0.834865,0,13,13,13,1
,,,,,,,,,,,,,,600563088f221175cc9eef01,2021-03-21_17h26.43.153,GuessTheSound,2020.2.10,Win32,60,,,,,,,,,,,,,,,SoundMST/Goat_B.wav,2,3,NEW,C,,,2,1,0.616065,0,14,14,14,1
,,,,,,,,,,,,,,600563088f221175cc9eef01,2021-03-21_17h26.43.153,GuessTheSound,2020.2.10,Win32,60,,,,,,,,,,,,,,,SoundMST/Horse.wav,1,1,OLD,C,,,1,1,0.89074,0,15,15,15,1
,,,,,,,,,,,,,,600563088f221175cc9eef01,2021-03-21_17h26.43.153,GuessTheSound,2020.2.10,Win32,60,,,,,,,,,,,,,,,SoundMST/Laugh_A.wav,2,3,NEW,C,,,2,1,1.605955,0,16,16,16,1
,,,,,,,,,,,,,,600563088f221175cc9eef01,2021-03-21_17h26.43.153,GuessTheSound,2020.2.10,Win32,60,,,,,,,,,,,,,,,SoundMST/Bubbles_B.wav,2,2,SIMILAR,C,,,1,0,0.405065,0,17,17,17,1
,,,,,,,,,,,,,,600563088f221175cc9eef01,2021-03-21_17h26.43.153,GuessTheSound,2020.2.10,Win32,60,,,,,,,,,,,,,,,SoundMST/Footsteps_C.wav,2,3,NEW,C,,,2,1,0.897735,0,18,18,18,1
,,,,,,,,,,,,,,600563088f221175cc9eef01,2021-03-21_17h26.43.153,GuessTheSound,2020.2.10,Win32,60,,,,,,,,,,,,,,,SoundMST/Duck_A.wav,2,3,NEW,C,,,2,1,0.476545,0,19,19,19,1
,,,,,,,,,,,,,,600563088f221175cc9eef01,2021-03-21_17h26.43.153,GuessTheSound,2020.2.10,Win32,60,,,,,,,,,,,,,,,SoundMST/Cow.wav,2,3,NEW,C,,,1,0,0.50909,0,20,20,20,1
,,,,,,,,,,,,,,600563088f221175cc9eef01,2021-03-21_17h26.43.153,GuessTheSound,2020.2.10,Win32,60,,,,,,,,,,,,,,,SoundMST/Airhorn.wav,2,3,NEW,C,,,2,1,0.367475,0,21,21,21,1
,,,,,,,,,,,,,,600563088f221175cc9eef01,2021-03-21_17h26.43.153,GuessTheSound,2020.2.10,Win32,60,,,,,,,,,,,,,,,SoundMST/Printer.wav,1,1,OLD,C,,,1,1,0.509045,0,22,22,22,1
,,,,,,,,,,,,,,600563088f221175cc9eef01,2021-03-21_17h26.43.153,GuessTheSound,2020.2.10,Win32,60,,,,,,,,,,,,,,,SoundMST/Sleighbells_B.wav,1,1,OLD,C,,,1,1,0.625655,0,23,23,23,1
,,,,,,,,,,,,,,600563088f221175cc9eef01,2021-03-21_17h26.43.153,GuessTheSound,2020.2.10,Win32,60,,,,,,,,,,,,,,,SoundMST/Camera.wav,2,3,NEW,C,,,2,1,1.10384,0,24,24,24,1
,,,,,,,,,,,,,,600563088f221175cc9eef01,2021-03-21_17h26.43.153,GuessTheSound,2020.2.10,Win32,60,,,,,,,,,,,,,,,SoundMST/Growl_H.wav,2,2,SIMILAR,C,,,1,0,0.369705,0,25,25,25,1
,,,,,,,,,,,,,,600563088f221175cc9eef01,2021-03-21_17h26.43.153,GuessTheSound,2020.2.10,Win32,60,,,,,,,,,,,,,,,SoundMST/Whistle_B.wav,2,3,NEW,C,,,2,1,0.62013,0,26,26,26,1
,,,,,,,,,,,,,,600563088f221175cc9eef01,2021-03-21_17h26.43.153,GuessTheSound,2020.2.10,Win32,60,,,,,,,,,,,,,,,SoundMST/Piano_D.wav,2,3,NEW,C,,,2,1,0.67151,0,27,27,27,1
,,,,,,,,,,,,,,600563088f221175cc9eef01,2021-03-21_17h26.43.153,GuessTheSound,2020.2.10,Win32,60,,,,,,,,,,,,,,,SoundMST/Coin_D.wav,2,3,NEW,C,,,2,1,0.78659,0,28,28,28,1
,,,,,,,,,,,,,,600563088f221175cc9eef01,2021-03-21_17h26.43.153,GuessTheSound,2020.2.10,Win32,60,,,,,,,,,,,,,,,SoundMST/Bird_A.wav,2,2,SIMILAR,C,,,1,0,5.121475,0,29,29,29,1
,,,,,,,,,,,,,,600563088f221175cc9eef01,2021-03-21_17h26.43.153,GuessTheSound,2020.2.10,Win32,60,,,,,,,,,,,,,,,SoundMST/PaperRip.wav,2,3,NEW,C,,,2,1,0.632505,0,30,30,30,1
,,,,,,,,,,,,,,600563088f221175cc9eef01,2021-03-21_17h26.43.153,GuessTheSound,2020.2.10,Win32,60,,,,,,,,,,,,,,,SoundMST/Slurp.wav,1,1,OLD,C,,,1,1,1.004455,0,31,31,31,1
,,,,,,,,,,,,,,600563088f221175cc9eef01,2021-03-21_17h26.43.153,GuessTheSound,2020.2.10,Win32,60,,,,,,,,,,,,,,,SoundMST/Howl.wav,1,1,OLD,C,,,1,1,0.728095,0,32,32,32,1
,,,,,,,,,,,,,,600563088f221175cc9eef01,2021-03-21_17h26.43.153,GuessTheSound,2020.2.10,Win32,60,,,,,,,,,,,,,,,SoundMST/IceDrop.wav,1,1,OLD,C,,,2,0,0.4085,0,33,33,33,1
,,,,,,,,,,,,,,600563088f221175cc9eef01,2021-03-21_17h26.43.153,GuessTheSound,2020.2.10,Win32,60,,,,,,,,,,,,,,,SoundMST/Pour_B.wav,2,3,NEW,C,,,2,1,0.379375,0,34,34,34,1
,,,,,,,,,,,,,,600563088f221175cc9eef01,2021-03-21_17h26.43.153,GuessTheSound,2020.2.10,Win32,60,,,,,,,,,,,,,,,SoundMST/Fireworks.wav,1,1,OLD,C,,,1,1,0.472805,0,35,35,35,1
,,,,,,,,,,,,,,600563088f221175cc9eef01,2021-03-21_17h26.43.153,GuessTheSound,2020.2.10,Win32,60,,,,,,,,,,,,,,,SoundMST/Footsteps_F.wav,2,2,SIMILAR,C,,,1,0,0.431595,0,36,36,36,1
,,,,,,,,,,,,,,600563088f221175cc9eef01,2021-03-21_17h26.43.153,GuessTheSound,2020.2.10,Win32,60,,,,,,,,,,,,,,,SoundMST/Chicken_A.wav,1,1,OLD,C,,,1,1,0.53616,0,37,37,37,1
,,,,,,,,,,,,,,600563088f221175cc9eef01,2021-03-21_17h26.43.153,GuessTheSound,2020.2.10,Win32,60,,,,,,,,,,,,,,,SoundMST/Bullfrog.wav,2,3,NEW,C,,,2,1,0.424105,0,38,38,38,1
,,,,,,,,,,,,,,600563088f221175cc9eef01,2021-03-21_17h26.43.153,GuessTheSound,2020.2.10,Win32,60,,,,,,,,,,,,,,,SoundMST/Bowlingpins.wav,1,1,OLD,C,,,2,0,1.210355,0,39,39,39,1
,,,,,,,,,,,,,,600563088f221175cc9eef01,2021-03-21_17h26.43.153,GuessTheSound,2020.2.10,Win32,60,,,,,,,,,,,,,,,SoundMST/Helicopter_A.wav,2,3,NEW,C,,,2,1,0.841895,0,40,40,40,1
,,,,,,,,,,,,,,600563088f221175cc9eef01,2021-03-21_17h26.43.153,GuessTheSound,2020.2.10,Win32,60,,,,,,,,,,,,,,,SoundMST/Goat_C.wav,2,2,SIMILAR,C,,,2,1,1.20968,0,41,41,41,1
,,,,,,,,,,,,,,600563088f221175cc9eef01,2021-03-21_17h26.43.153,GuessTheSound,2020.2.10,Win32,60,,,,,,,,,,,,,,,SoundMST/HairDryer_A.wav,2,3,NEW,C,,,1,0,0.360065,0,42,42,42,1
,,,,,,,,,,,,,,600563088f221175cc9eef01,2021-03-21_17h26.43.153,GuessTheSound,2020.2.10,Win32,60,,,,,,,,,,,,,,,SoundMST/Duck_B.wav,2,2,SIMILAR,C,,,2,1,0.41748,0,43,43,43,1
,,,,,,,,,,,,,,600563088f221175cc9eef01,2021-03-21_17h26.43.153,GuessTheSound,2020.2.10,Win32,60,,,,,,,,,,,,,,,SoundMST/PaperRip.wav,1,1,OLD,C,,,1,1,0.42228,0,44,44,44,1
,,,,,,,,,,,,,,600563088f221175cc9eef01,2021-03-21_17h26.43.153,GuessTheSound,2020.2.10,Win32,60,,,,,,,,,,,,,,,SoundMST/Dog_H.wav,2,3,NEW,C,,,2,1,0.438035,0,45,45,45,1
,,,,,,,,,,,,,,600563088f221175cc9eef01,2021-03-21_17h26.43.153,GuessTheSound,2020.2.10,Win32,60,,,,,,,,,,,,,,,SoundMST/Camera.wav,1,1,OLD,C,,,1,1,0.540655,0,46,46,46,1
,,,,,,,,,,,,,,600563088f221175cc9eef01,2021-03-21_17h26.43.153,GuessTheSound,2020.2.10,Win32,60,,,,,,,,,,,,,,,SoundMST/Laugh_D.wav,2,2,SIMILAR,C,,,1,0,0.4132,0,47,47,47,1
,,,,,,,,,,,,,,600563088f221175cc9eef01,2021-03-21_17h26.43.153,GuessTheSound,2020.2.10,Win32,60,,,,,,,,,,,,,,,SoundMST/Sneeze_B.wav,2,3,NEW,C,,,2,1,1.59376,0,48,48,48,1
,,,,,,,,,,,,,,600563088f221175cc9eef01,2021-03-21_17h26.43.153,GuessTheSound,2020.2.10,Win32,60,,,,,,,,,,,,,,,SoundMST/Cow.wav,1,1,OLD,C,,,1,1,0.4755,0,49,49,49,1
,,,,,,,,,,,,,,600563088f221175cc9eef01,2021-03-21_17h26.43.153,GuessTheSound,2020.2.10,Win32,60,,,,,,,,,,,,,,,SoundMST/Donkey.wav,2,3,NEW,C,,,2,1,0.71047,0,50,50,50,1
,,,,,,,,,,,,,,600563088f221175cc9eef01,2021-03-21_17h26.43.153,GuessTheSound,2020.2.10,Win32,60,,,,,,,,,,,,,,,SoundMST/Coin_E.wav,2,2,SIMILAR,C,,,1,0,0.789585,0,51,51,51,1
,,,,,,,,,,,,,,600563088f221175cc9eef01,2021-03-21_17h26.43.153,GuessTheSound,2020.2.10,Win32,60,,,,,,,,,,,,,,,SoundMST/Buzz.wav,2,3,NEW,C,,,2,1,0.493455,0,52,52,52,1
,,,,,,,,,,,,,,600563088f221175cc9eef01,2021-03-21_17h26.43.153,GuessTheSound,2020.2.10,Win32,60,,,,,,,,,,,,,,,SoundMST/Piano_D.wav,1,1,OLD,C,,,1,1,0.70157,0,53,53,53,1
,,,,,,,,,,,,,,600563088f221175cc9eef01,2021-03-21_17h26.43.153,GuessTheSound,2020.2.10,Win32,60,,,,,,,,,,,,,,,SoundMST/Hammer_A.wav,2,3,NEW,C,,,2,1,1.424955,0,54,54,54,1
,,,,,,,,,,,,,,600563088f221175cc9eef01,2021-03-21_17h26.43.153,GuessTheSound,2020.2.10,Win32,60,,,,,,,,,,,,,,,SoundMST/Airhorn.wav,1,1,OLD,C,,,1,1,0.504875,0,55,55,55,1
,,,,,,,,,,,,,,600563088f221175cc9eef01,2021-03-21_17h26.43.153,GuessTheSound,2020.2.10,Win32,60,,,,,,,,,,,,,,,SoundMST/Whistle_C.wav,2,2,SIMILAR,C,,,2,1,3.35692,0,56,56,56,1
,,,,,,,,,,,,,,600563088f221175cc9eef01,2021-03-21_17h26.43.153,GuessTheSound,2020.2.10,Win32,60,,,,,,,,,,,,,,,SoundMST/Faucet_A.wav,2,3,NEW,C,,,2,1,1.927385,0,57,57,57,1
,,,,,,,,,,,,,,600563088f221175cc9eef01,2021-03-21_17h26.43.153,GuessTheSound,2020.2.10,Win32,60,,,,,,,,,,,,,,,SoundMST/Pour_C.wav,2,2,SIMILAR,C,,,1,0,0.643245,0,58,58,58,1
,,,,,,,,,,,,,,600563088f221175cc9eef01,2021-03-21_17h26.43.153,GuessTheSound,2020.2.10,Win32,60,,,,,,,,,,,,,,,SoundMST/Crow_B.wav,2,3,NEW,C,,,2,1,0.318585,0,59,59,59,1
,,,,,,,,,,,,,,600563088f221175cc9eef01,2021-03-21_17h26.43.153,GuessTheSound,2020.2.10,Win32,60,,,,,,,,,,,,,,,SoundMST/Trumpet_B.wav,2,3,NEW,C,,,2,1,0.20976,0,60,60,60,1
,,,,,,,,,,,,,,600563088f221175cc9eef01,2021-03-21_17h26.43.153,GuessTheSound,2020.2.10,Win32,60,,,,,,,,,,,,,,,SoundMST/Bullfrog.wav,1,1,OLD,C,,,1,1,0.83228,0,61,61,61,1
,,,,,,,,,,,,,,600563088f221175cc9eef01,2021-03-21_17h26.43.153,GuessTheSound,2020.2.10,Win32,60,,,,,,,,,,,,,,,SoundMST/Helicopter_A.wav,1,1,OLD,C,,,1,1,0.60859,0,62,62,62,1
,,,,,,,,,,,,,,600563088f221175cc9eef01,2021-03-21_17h26.43.153,GuessTheSound,2020.2.10,Win32,60,,,,,,,,,,,,,,,SoundMST/Elephant_C.wav,2,3,NEW,C,,,2,1,0.28858,0,63,63,63,1
,,,,,,,,,,,,,,600563088f221175cc9eef01,2021-03-21_17h26.43.153,GuessTheSound,2020.2.10,Win32,60,,,,,,,,,,,,,,,SoundMST/Sneeze_B.wav,1,1,OLD,C,,,1,1,0.72232,0,64,64,64,1
,,,,,,,,,,,,,,600563088f221175cc9eef01,2021-03-21_17h26.43.153,GuessTheSound,2020.2.10,Win32,60,,,,,,,,,,,,,,,SoundMST/Chime_B.wav,2,3,NEW,C,,,2,1,1.62291,0,65,65,65,1
,,,,,,,,,,,,,,600563088f221175cc9eef01,2021-03-21_17h26.43.153,GuessTheSound,2020.2.10,Win32,60,,,,,,,,,,,,,,,SoundMST/Phone_D.wav,2,3,NEW,C,,,2,1,1.09765,0,66,66,66,1
,,,,,,,,,,,,,,600563088f221175cc9eef01,2021-03-21_17h26.43.153,GuessTheSound,2020.2.10,Win32,60,,,,,,,,,,,,,,,SoundMST/HairDryer_A.wav,1,1,OLD,C,,,1,1,0.705045,0,67,67,67,1
,,,,,,,,,,,,,,600563088f221175cc9eef01,2021-03-21_17h26.43.153,GuessTheSound,2020.2.10,Win32,60,,,,,,,,,,,,,,,SoundMST/Puff_A.wav,2,3,NEW,C,,,2,1,0.28623,0,68,68,68,1
,,,,,,,,,,,,,,600563088f221175cc9eef01,2021-03-21_17h26.43.153,GuessTheSound,2020.2.10,Win32,60,,,,,,,,,,,,,,,SoundMST/Dog_F.wav,2,2,SIMILAR,C,,,2,1,1.932575,0,69,69,69,1
,,,,,,,,,,,,,,600563088f221175cc9eef01,2021-03-21_17h26.43.153,GuessTheSound,2020.2.10,Win32,60,,,,,,,,,,,,,,,SoundMST/Donkey.wav,1,1,OLD,C,,,1,1,0.251275,0,70,70,70,1
,,,,,,,,,,,,,,600563088f221175cc9eef01,2021-03-21_17h26.43.153,GuessTheSound,2020.2.10,Win32,60,,,,,,,,,,,,,,,SoundMST/Toilet_B.wav,2,3,NEW,C,,,1,0,0.551675,0,71,71,71,1
,,,,,,,,,,,,,,600563088f221175cc9eef01,2021-03-21_17h26.43.153,GuessTheSound,2020.2.10,Win32,60,,,,,,,,,,,,,,,SoundMST/Writing_A.wav,2,3,NEW,C,,,2,1,0.376455,0,72,72,72,1
,,,,,,,,,,,,,,600563088f221175cc9eef01,2021-03-21_17h26.43.153,GuessTheSound,2020.2.10,Win32,60,,,,,,,,,,,,,,,SoundMST/Cello.wav,2,3,NEW,C,,,2,1,0.83314,0,73,73,73,1
,,,,,,,,,,,,,,600563088f221175cc9eef01,2021-03-21_17h26.43.153,GuessTheSound,2020.2.10,Win32,60,,,,,,,,,,,,,,,SoundMST/Crow_A.wav,2,2,SIMILAR,C,,,1,0,0.406605,0,74,74,74,1
,,,,,,,,,,,,,,600563088f221175cc9eef01,2021-03-21_17h26.43.153,GuessTheSound,2020.2.10,Win32,60,,,,,,,,,,,,,,,SoundMST/Hammer_A.wav,1,1,OLD,C,,,1,1,0.32801,0,75,75,75,1
,,,,,,,,,,,,,,600563088f221175cc9eef01,2021-03-21_17h26.43.153,GuessTheSound,2020.2.10,Win32,60,,,,,,,,,,,,,,,SoundMST/Cuckoo_A.wav,2,3,NEW,C,,,2,1,0.30073,0,76,76,76,1
,,,,,,,,,,,,,,600563088f221175cc9eef01,2021-03-21_17h26.43.153,GuessTheSound,2020.2.10,Win32,60,,,,,,,,,,,,,,,SoundMST/Buzz.wav,1,1,OLD,C,,,1,1,2.223895,0,77,77,77,1
,,,,,,,,,,,,,,600563088f221175cc9eef01,2021-03-21_17h26.43.153,GuessTheSound,2020.2.10,Win32,60,,,,,,,,,,,,,,,SoundMST/Siren_E.wav,2,3,NEW,C,,,2,1,2.292795,0,78,78,78,1
,,,,,,,,,,,,,,600563088f221175cc9eef01,2021-03-21_17h26.43.153,GuessTheSound,2020.2.10,Win32,60,,,,,,,,,,,,,,,SoundMST/Trumpet_B.wav,1,1,OLD,C,,,1,1,2.332025,0,79,79,79,1
,,,,,,,,,,,,,,600563088f221175cc9eef01,2021-03-21_17h26.43.153,GuessTheSound,2020.2.10,Win32,60,,,,,,,,,,,,,,,SoundMST/Wind_B.wav,2,3,NEW,C,,,2,1,0.42718,0,80,80,80,1
,,,,,,,,,,,,,,600563088f221175cc9eef01,2021-03-21_17h26.43.153,GuessTheSound,2020.2.10,Win32,60,,,,,,,,,,,,,,,SoundMST/Cat_A.wav,2,3,NEW,C,,,2,1,0.855355,0,81,81,81,1
,,,,,,,,,,,,,,600563088f221175cc9eef01,2021-03-21_17h26.43.153,GuessTheSound,2020.2.10,Win32,60,,,,,,,,,,,,,,,SoundMST/Phone_E.wav,2,2,SIMILAR,C,,,2,1,0.39368,0,82,82,82,1
,,,,,,,,,,,,,,600563088f221175cc9eef01,2021-03-21_17h26.43.153,GuessTheSound,2020.2.10,Win32,60,,,,,,,,,,,,,,,SoundMST/Chomp_A.wav,2,3,NEW,C,,,2,1,0.434875,0,83,83,83,1
,,,,,,,,,,,,,,600563088f221175cc9eef01,2021-03-21_17h26.43.153,GuessTheSound,2020.2.10,Win32,60,,,,,,,,,,,,,,,SoundMST/Elephant_A.wav,2,2,SIMILAR,C,,,1,0,0.345495,0,84,84,84,1
,,,,,,,,,,,,,,600563088f221175cc9eef01,2021-03-21_17h26.43.153,GuessTheSound,2020.2.10,Win32,60,,,,,,,,,,,,,,,SoundMST/Cup.wav,2,3,NEW,C,,,2,1,0.8043,0,85,85,85,1
,,,,,,,,,,,,,,600563088f221175cc9eef01,2021-03-21_17h26.43.153,GuessTheSound,2020.2.10,Win32,60,,,,,,,,,,,,,,,SoundMST/Chime_A.wav,2,2,SIMILAR,C,,,1,0,0.36622,0,86,86,86,1
,,,,,,,,,,,,,,600563088f221175cc9eef01,2021-03-21_17h26.43.153,GuessTheSound,2020.2.10,Win32,60,,,,,,,,,,,,,,,SoundMST/Droplet_B.wav,2,3,NEW,C,,,2,1,0.306555,0,87,87,87,1
,,,,,,,,,,,,,,600563088f221175cc9eef01,2021-03-21_17h26.43.153,GuessTheSound,2020.2.10,Win32,60,,,,,,,,,,,,,,,SoundMST/Faucet_C.wav,2,2,SIMILAR,C,,,2,1,1.20252,0,88,88,88,1
,,,,,,,,,,,,,,600563088f221175cc9eef01,2021-03-21_17h26.43.153,GuessTheSound,2020.2.10,Win32,60,,,,,,,,,,,,,,,SoundMST/Puff_A.wav,1,1,OLD,C,,,1,1,0.457145,0,89,89,89,1
,,,,,,,,,,,,,,600563088f221175cc9eef01,2021-03-21_17h26.43.153,GuessTheSound,2020.2.10,Win32,60,,,,,,,,,,,,,,,SoundMST/Clap_B.wav,2,3,NEW,C,,,2,1,0.22483,0,90,90,90,1
,,,,,,,,,,,,,,600563088f221175cc9eef01,2021-03-21_17h26.43.153,GuessTheSound,2020.2.10,Win32,60,,,,,,,,,,,,,,,SoundMST/Cello.wav,1,1,OLD,C,,,1,1,0.446695,0,91,91,91,1
,,,,,,,,,,,,,,600563088f221175cc9eef01,2021-03-21_17h26.43.153,GuessTheSound,2020.2.10,Win32,60,,,,,,,,,,,,,,,SoundMST/Mosquito_B.wav,2,3,NEW,C,,,2,1,0.34346,0,92,92,92,1
,,,,,,,,,,,,,,600563088f221175cc9eef01,2021-03-21_17h26.43.153,GuessTheSound,2020.2.10,Win32,60,,,,,,,,,,,,,,,SoundMST/Writing_C.wav,2,2,SIMILAR,C,,,1,0,0.40509,0,93,93,93,1
,,,,,,,,,,,,,,600563088f221175cc9eef01,2021-03-21_17h26.43.153,GuessTheSound,2020.2.10,Win32,60,,,,,,,,,,,,,,,SoundMST/Guitar_B.wav,2,3,NEW,C,,,2,1,0.588595,0,94,94,94,1
,,,,,,,,,,,,,,600563088f221175cc9eef01,2021-03-21_17h26.43.153,GuessTheSound,2020.2.10,Win32,60,,,,,,,,,,,,,,,SoundMST/Toilet_B.wav,1,1,OLD,C,,,1,1,0.37896,0,95,95,95,1
,,,,,,,,,,,,,,600563088f221175cc9eef01,2021-03-21_17h26.43.153,GuessTheSound,2020.2.10,Win32,60,,,,,,,,,,,,,,,SoundMST/Bagpipe.wav,2,3,NEW,C,,,2,1,0.79267,0,96,96,96,1
,,,,,,,,,,,,,,600563088f221175cc9eef01,2021-03-21_17h26.43.153,GuessTheSound,2020.2.10,Win32,60,,,,,,,,,,,,,,,SoundMST/Cuckoo_A.wav,1,1,OLD,C,,,1,1,0.32042,0,97,97,97,1
,,,,,,,,,,,,,,600563088f221175cc9eef01,2021-03-21_17h26.43.153,GuessTheSound,2020.2.10,Win32,60,,,,,,,,,,,,,,,SoundMST/Wind_B.wav,1,1,OLD,C,,,1,1,0.419395,0,98,98,98,1
,,,,,,,,,,,,,,600563088f221175cc9eef01,2021-03-21_17h26.43.153,GuessTheSound,2020.2.10,Win32,60,,,,,,,,,,,,,,,SoundMST/Cough_C.wav,2,3,NEW,C,,,2,1,0.41159,0,99,99,99,1
,,,,,,,,,,,,,,600563088f221175cc9eef01,2021-03-21_17h26.43.153,GuessTheSound,2020.2.10,Win32,60,,,,,,,,,,,,,,,SoundMST/ManWhistle.wav,2,3,NEW,C,,,2,1,0.34306,0,100,100,100,1
,,,,,,,,,,,,,,600563088f221175cc9eef01,2021-03-21_17h26.43.153,GuessTheSound,2020.2.10,Win32,60,,,,,,,,,,,,,,,SoundMST/Chomp_C.wav,2,2,SIMILAR,C,,,1,0,0.660735,0,101,101,101,1
,,,,,,,,,,,,,,600563088f221175cc9eef01,2021-03-21_17h26.43.153,GuessTheSound,2020.2.10,Win32,60,,,,,,,,,,,,,,,SoundMST/Siren_A.wav,2,2,SIMILAR,C,,,2,1,1.821965,0,102,102,102,1
,,,,,,,,,,,,,,600563088f221175cc9eef01,2021-03-21_17h26.43.153,GuessTheSound,2020.2.10,Win32,60,,,,,,,,,,,,,,,SoundMST/Thunder_A.wav,2,3,NEW,C,,,2,1,0.957685,0,103,103,103,1
,,,,,,,,,,,,,,600563088f221175cc9eef01,2021-03-21_17h26.43.153,GuessTheSound,2020.2.10,Win32,60,,,,,,,,,,,,,,,SoundMST/Cat_A.wav,1,1,OLD,C,,,1,1,0.379145,0,104,104,104,1
,,,,,,,,,,,,,,600563088f221175cc9eef01,2021-03-21_17h26.43.153,GuessTheSound,2020.2.10,Win32,60,,,,,,,,,,,,,,,SoundMST/Snore_C.wav,2,3,NEW,C,,,2,1,0.71845,0,105,105,105,1
,,,,,,,,,,,,,,600563088f221175cc9eef01,2021-03-21_17h26.43.153,GuessTheSound,2020.2.10,Win32,60,,,,,,,,,,,,,,,SoundMST/Cup.wav,1,1,OLD,C,,,1,1,0.487965,0,106,106,106,1
,,,,,,,,,,,,,,600563088f221175cc9eef01,2021-03-21_17h26.43.153,GuessTheSound,2020.2.10,Win32,60,,,,,,,,,,,,,,,SoundMST/Baby_F.wav,2,3,NEW,C,,,2,1,0.27791,0,107,107,107,1
,,,,,,,,,,,,,,600563088f221175cc9eef01,2021-03-21_17h26.43.153,GuessTheSound,2020.2.10,Win32,60,,,,,,,,,,,,,,,SoundMST/Droplet_B.wav,1,1,OLD,C,,,1,1,0.39449,0,108,108,108,1
,,,,,,,,,,,,,,600563088f221175cc9eef01,2021-03-21_17h26.43.153,GuessTheSound,2020.2.10,Win32,60,,,,,,,,,,,,,,,SoundMST/DialTone.wav,2,3,NEW,C,,,2,1,0.31326,0,109,109,109,1
,,,,,,,,,,,,,,600563088f221175cc9eef01,2021-03-21_17h26.43.153,GuessTheSound,2020.2.10,Win32,60,,,,,,,,,,,,,,,SoundMST/Clap_C.wav,2,2,SIMILAR,C,,,1,0,0.359875,0,110,110,110,1
,,,,,,,,,,,,,,600563088f221175cc9eef01,2021-03-21_17h26.43.153,GuessTheSound,2020.2.10,Win32,60,,,,,,,,,,,,,,,SoundMST/Heartbeat.wav,2,3,NEW,C,,,2,1,1.628915,0,111,111,111,1
,,,,,,,,,,,,,,600563088f221175cc9eef01,2021-03-21_17h26.43.153,GuessTheSound,2020.2.10,Win32,60,,,,,,,,,,,,,,,SoundMST/Guitar_B.wav,1,1,OLD,C,,,1,1,0.20069,0,112,112,112,1
,,,,,,,,,,,,,,600563088f221175cc9eef01,2021-03-21_17h26.43.153,GuessTheSound,2020.2.10,Win32,60,,,,,,,,,,,,,,,SoundMST/Typing.wav,2,3,NEW,C,,,2,1,0.03428,0,113,113,113,1
,,,,,,,,,,,,,,600563088f221175cc9eef01,2021-03-21_17h26.43.153,GuessTheSound,2020.2.10,Win32,60,,,,,,,,,,,,,,,SoundMST/Mosquito_B.wav,1,1,OLD,C,,,1,1,0.487075,0,114,114,114,1
,,,,,,,,,,,,,,600563088f221175cc9eef01,2021-03-21_17h26.43.153,GuessTheSound,2020.2.10,Win32,60,,,,,,,,,,,,,,,SoundMST/Airplane_B.wav,2,3,NEW,C,,,2,1,2.798305,0,115,115,115,1
,,,,,,,,,,,,,,600563088f221175cc9eef01,2021-03-21_17h26.43.153,GuessTheSound,2020.2.10,Win32,60,,,,,,,,,,,,,,,SoundMST/ManWhistle.wav,1,1,OLD,C,,,1,1,0.302315,0,116,116,116,1
,,,,,,,,,,,,,,600563088f221175cc9eef01,2021-03-21_17h26.43.153,GuessTheSound,2020.2.10,Win32,60,,,,,,,,,,,,,,,SoundMST/Steam.wav,2,3,NEW,C,,,2,1,0.385675,0,117,117,117,1
,,,,,,,,,,,,,,600563088f221175cc9eef01,2021-03-21_17h26.43.153,GuessTheSound,2020.2.10,Win32,60,,,,,,,,,,,,,,,SoundMST/Baby_E.wav,2,2,SIMILAR,C,,,1,0,0.45035,0,118,118,118,1
,,,,,,,,,,,,,,600563088f221175cc9eef01,2021-03-21_17h26.43.153,GuessTheSound,2020.2.10,Win32,60,,,,,,,,,,,,,,,SoundMST/Bagpipe.wav,1,1,OLD,C,,,1,1,0.81336,0,119,119,119,1
