VolumeContinueKey.keys,VolumeContinueKey.rt,HeadphoneContinueKey.keys,HeadphoneContinueKey.rt,CheckResp.keys,CheckResp.corr,CheckResp.rt,trials_2.thisRepN,trials_2.thisTrialN,trials_2.thisN,trials_2.thisIndex,trials_2.ran,File,Correct,participant,date,expName,psychopyVersion,OS,frameRate,key_resp_2.keys,key_resp_2.rt,key_resp_3.keys,key_resp_3.rt,WelcomeContinueKey2.keys,WelcomeContinueKey2.rt,Practice_resp.keys,Practice_resp.corr,Practice_resp.rt,PracticeLoop.thisRepN,PracticeLoop.thisTrialN,PracticeLoop.thisN,PracticeLoop.thisIndex,PracticeLoop.ran,SoundFile,SoundCorrect,Correct2,SoundType,Trial,StartTast.keys,StartTast.rt,key_resp.keys,key_resp.corr,key_resp.rt,trials.thisRepN,trials.thisTrialN,trials.thisN,trials.thisIndex,trials.ran,ExitKey.keys,ExitKey.rt
space,5.97513,space,9.61685,1,1,2.49841,0,0,0,1,1,Headphone/t1_2.wav,1,60204c263941fb63d9d794bc,2021-03-21_15h00.56.013,GuessTheSound,2020.2.10,Win32,60,,,,,,,,,,,,,,,,,,,,,,,,,,,,,,,
,,,,2,1,0.58293,0,1,1,3,1,Headphone/t2_2.wav,2,60204c263941fb63d9d794bc,2021-03-21_15h00.56.013,GuessTheSound,2020.2.10,Win32,60,,,,,,,,,,,,,,,,,,,,,,,,,,,,,,,
,,,,3,1,0.559025,0,2,2,5,1,Headphone/t3_2.wav,3,60204c263941fb63d9d794bc,2021-03-21_15h00.56.013,GuessTheSound,2020.2.10,Win32,60,,,,,,,,,,,,,,,,,,,,,,,,,,,,,,,
,,,,2,1,0.36324,0,3,3,2,1,Headphone/t2_1.wav,2,60204c263941fb63d9d794bc,2021-03-21_15h00.56.013,GuessTheSound,2020.2.10,Win32,60,,,,,,,,,,,,,,,,,,,,,,,,,,,,,,,
,,,,3,1,0.893005,0,4,4,4,1,Headphone/t3_1.wav,3,60204c263941fb63d9d794bc,2021-03-21_15h00.56.013,GuessTheSound,2020.2.10,Win32,60,,,,,,,,,,,,,,,,,,,,,,,,,,,,,,,
,,,,1,1,0.483705,0,5,5,0,1,Headphone/t1_1.wav,1,60204c263941fb63d9d794bc,2021-03-21_15h00.56.013,GuessTheSound,2020.2.10,Win32,60,,,,,,,,,,,,,,,,,,,,,,,,,,,,,,,
,,,,,,,,,,,,,,60204c263941fb63d9d794bc,2021-03-21_15h00.56.013,GuessTheSound,2020.2.10,Win32,60,space,18.158845,space,8.780655,space,5.794145,2,1,1.529225,0,0,0,0,1,Practice/Seagull_A.wav,2,3,NEW,Practice,,,,,,,,,,,,
,,,,,,,,,,,,,,60204c263941fb63d9d794bc,2021-03-21_15h00.56.013,GuessTheSound,2020.2.10,Win32,60,,,,,,,2,1,0.52612,0,1,1,1,1,Practice/Skid_B.wav,2,3,NEW,Practice,,,,,,,,,,,,
,,,,,,,,,,,,,,60204c263941fb63d9d794bc,2021-03-21_15h00.56.013,GuessTheSound,2020.2.10,Win32,60,,,,,,,1,1,0.82916,0,2,2,2,1,Practice/Seagull_A.wav,1,1,OLD,Practice,,,,,,,,,,,,
,,,,,,,,,,,,,,60204c263941fb63d9d794bc,2021-03-21_15h00.56.013,GuessTheSound,2020.2.10,Win32,60,,,,,,,2,1,0.76591,0,3,3,3,1,Practice/Gargle_A.wav,2,3,NEW,Practice,,,,,,,,,,,,
,,,,,,,,,,,,,,60204c263941fb63d9d794bc,2021-03-21_15h00.56.013,GuessTheSound,2020.2.10,Win32,60,,,,,,,2,1,0.78873,0,4,4,4,1,Practice/Gargle_B.wav,2,2,SIMILAR,Practice,,,,,,,,,,,,
,,,,,,,,,,,,,,60204c263941fb63d9d794bc,2021-03-21_15h00.56.013,GuessTheSound,2020.2.10,Win32,60,,,,,,,,,,,,,,,SoundMST/ManWhistle.wav,2,3,NEW,B,space,10.67662,2,1,2.748555,0,0,0,0,1,,
,,,,,,,,,,,,,,60204c263941fb63d9d794bc,2021-03-21_15h00.56.013,GuessTheSound,2020.2.10,Win32,60,,,,,,,,,,,,,,,SoundMST/Siren_E.wav,2,3,NEW,B,,,2,1,0.551675,0,1,1,1,1,,
,,,,,,,,,,,,,,60204c263941fb63d9d794bc,2021-03-21_15h00.56.013,GuessTheSound,2020.2.10,Win32,60,,,,,,,,,,,,,,,SoundMST/Footsteps_C.wav,2,3,NEW,B,,,2,1,0.60394,0,2,2,2,1,,
,,,,,,,,,,,,,,60204c263941fb63d9d794bc,2021-03-21_15h00.56.013,GuessTheSound,2020.2.10,Win32,60,,,,,,,,,,,,,,,SoundMST/Chicken_A.wav,2,3,NEW,B,,,2,1,0.611055,0,3,3,3,1,,
,,,,,,,,,,,,,,60204c263941fb63d9d794bc,2021-03-21_15h00.56.013,GuessTheSound,2020.2.10,Win32,60,,,,,,,,,,,,,,,SoundMST/Phone_D.wav,2,3,NEW,B,,,2,1,0.26946,0,4,4,4,1,,
,,,,,,,,,,,,,,60204c263941fb63d9d794bc,2021-03-21_15h00.56.013,GuessTheSound,2020.2.10,Win32,60,,,,,,,,,,,,,,,SoundMST/Cup.wav,2,3,NEW,B,,,2,1,0.55222,0,5,5,5,1,,
,,,,,,,,,,,,,,60204c263941fb63d9d794bc,2021-03-21_15h00.56.013,GuessTheSound,2020.2.10,Win32,60,,,,,,,,,,,,,,,SoundMST/Bowlingpins.wav,2,3,NEW,B,,,2,1,0.26818,0,6,6,6,1,,
,,,,,,,,,,,,,,60204c263941fb63d9d794bc,2021-03-21_15h00.56.013,GuessTheSound,2020.2.10,Win32,60,,,,,,,,,,,,,,,SoundMST/Bird_E.wav,2,3,NEW,B,,,2,1,0.55803,0,7,7,7,1,,
,,,,,,,,,,,,,,60204c263941fb63d9d794bc,2021-03-21_15h00.56.013,GuessTheSound,2020.2.10,Win32,60,,,,,,,,,,,,,,,SoundMST/HairDryer_A.wav,2,3,NEW,B,,,2,1,0.416875,0,8,8,8,1,,
,,,,,,,,,,,,,,60204c263941fb63d9d794bc,2021-03-21_15h00.56.013,GuessTheSound,2020.2.10,Win32,60,,,,,,,,,,,,,,,SoundMST/Faucet_A.wav,2,3,NEW,B,,,2,1,0.707495,0,9,9,9,1,,
,,,,,,,,,,,,,,60204c263941fb63d9d794bc,2021-03-21_15h00.56.013,GuessTheSound,2020.2.10,Win32,60,,,,,,,,,,,,,,,SoundMST/Siren_A.wav,2,2,SIMILAR,B,,,2,1,0.925195,0,10,10,10,1,,
,,,,,,,,,,,,,,60204c263941fb63d9d794bc,2021-03-21_15h00.56.013,GuessTheSound,2020.2.10,Win32,60,,,,,,,,,,,,,,,SoundMST/Laugh_A.wav,2,3,NEW,B,,,2,1,0.596075,0,11,11,11,1,,
,,,,,,,,,,,,,,60204c263941fb63d9d794bc,2021-03-21_15h00.56.013,GuessTheSound,2020.2.10,Win32,60,,,,,,,,,,,,,,,SoundMST/ManWhistle.wav,1,1,OLD,B,,,1,1,0.3335,0,12,12,12,1,,
,,,,,,,,,,,,,,60204c263941fb63d9d794bc,2021-03-21_15h00.56.013,GuessTheSound,2020.2.10,Win32,60,,,,,,,,,,,,,,,SoundMST/Cow.wav,2,3,NEW,B,,,2,1,0.324045,0,13,13,13,1,,
,,,,,,,,,,,,,,60204c263941fb63d9d794bc,2021-03-21_15h00.56.013,GuessTheSound,2020.2.10,Win32,60,,,,,,,,,,,,,,,SoundMST/Cough_D.wav,2,3,NEW,B,,,2,1,0.50044,0,14,14,14,1,,
,,,,,,,,,,,,,,60204c263941fb63d9d794bc,2021-03-21_15h00.56.013,GuessTheSound,2020.2.10,Win32,60,,,,,,,,,,,,,,,SoundMST/Phone_E.wav,2,2,SIMILAR,B,,,1,0,0.17955,0,15,15,15,1,,
,,,,,,,,,,,,,,60204c263941fb63d9d794bc,2021-03-21_15h00.56.013,GuessTheSound,2020.2.10,Win32,60,,,,,,,,,,,,,,,SoundMST/Chime_B.wav,2,3,NEW,B,,,2,1,0.76677,0,16,16,16,1,,
,,,,,,,,,,,,,,60204c263941fb63d9d794bc,2021-03-21_15h00.56.013,GuessTheSound,2020.2.10,Win32,60,,,,,,,,,,,,,,,SoundMST/Footsteps_F.wav,2,2,SIMILAR,B,,,2,1,0.42437,0,17,17,17,1,,
,,,,,,,,,,,,,,60204c263941fb63d9d794bc,2021-03-21_15h00.56.013,GuessTheSound,2020.2.10,Win32,60,,,,,,,,,,,,,,,SoundMST/Toilet_B.wav,2,3,NEW,B,,,2,1,0.445325,0,18,18,18,1,,
,,,,,,,,,,,,,,60204c263941fb63d9d794bc,2021-03-21_15h00.56.013,GuessTheSound,2020.2.10,Win32,60,,,,,,,,,,,,,,,SoundMST/Piano_D.wav,2,3,NEW,B,,,2,1,0.698755,0,19,19,19,1,,
,,,,,,,,,,,,,,60204c263941fb63d9d794bc,2021-03-21_15h00.56.013,GuessTheSound,2020.2.10,Win32,60,,,,,,,,,,,,,,,SoundMST/Cup.wav,1,1,OLD,B,,,2,0,1.93603,0,20,20,20,1,,
,,,,,,,,,,,,,,60204c263941fb63d9d794bc,2021-03-21_15h00.56.013,GuessTheSound,2020.2.10,Win32,60,,,,,,,,,,,,,,,SoundMST/HairDryer_A.wav,1,1,OLD,B,,,1,1,1.14509,0,21,21,21,1,,
,,,,,,,,,,,,,,60204c263941fb63d9d794bc,2021-03-21_15h00.56.013,GuessTheSound,2020.2.10,Win32,60,,,,,,,,,,,,,,,SoundMST/Thunder_A.wav,2,3,NEW,B,,,2,1,0.812605,0,22,22,22,1,,
,,,,,,,,,,,,,,60204c263941fb63d9d794bc,2021-03-21_15h00.56.013,GuessTheSound,2020.2.10,Win32,60,,,,,,,,,,,,,,,SoundMST/Chicken_A.wav,1,1,OLD,B,,,1,1,0.57758,0,23,23,23,1,,
,,,,,,,,,,,,,,60204c263941fb63d9d794bc,2021-03-21_15h00.56.013,GuessTheSound,2020.2.10,Win32,60,,,,,,,,,,,,,,,SoundMST/Whistle_B.wav,2,3,NEW,B,,,2,1,0.508335,0,24,24,24,1,,
,,,,,,,,,,,,,,60204c263941fb63d9d794bc,2021-03-21_15h00.56.013,GuessTheSound,2020.2.10,Win32,60,,,,,,,,,,,,,,,SoundMST/Bird_A.wav,2,2,SIMILAR,B,,,1,0,0.47877,0,25,25,25,1,,
,,,,,,,,,,,,,,60204c263941fb63d9d794bc,2021-03-21_15h00.56.013,GuessTheSound,2020.2.10,Win32,60,,,,,,,,,,,,,,,SoundMST/Dog_H.wav,2,3,NEW,B,,,2,1,0.45439,0,26,26,26,1,,
,,,,,,,,,,,,,,60204c263941fb63d9d794bc,2021-03-21_15h00.56.013,GuessTheSound,2020.2.10,Win32,60,,,,,,,,,,,,,,,SoundMST/Bowlingpins.wav,1,1,OLD,B,,,1,1,0.35017,0,27,27,27,1,,
,,,,,,,,,,,,,,60204c263941fb63d9d794bc,2021-03-21_15h00.56.013,GuessTheSound,2020.2.10,Win32,60,,,,,,,,,,,,,,,SoundMST/Fireworks.wav,2,3,NEW,B,,,2,1,0.37968,0,28,28,28,1,,
,,,,,,,,,,,,,,60204c263941fb63d9d794bc,2021-03-21_15h00.56.013,GuessTheSound,2020.2.10,Win32,60,,,,,,,,,,,,,,,SoundMST/Cow.wav,1,1,OLD,B,,,1,1,0.34084,0,29,29,29,1,,
,,,,,,,,,,,,,,60204c263941fb63d9d794bc,2021-03-21_15h00.56.013,GuessTheSound,2020.2.10,Win32,60,,,,,,,,,,,,,,,SoundMST/Snore_C.wav,2,3,NEW,B,,,2,1,0.736625,0,30,30,30,1,,
,,,,,,,,,,,,,,60204c263941fb63d9d794bc,2021-03-21_15h00.56.013,GuessTheSound,2020.2.10,Win32,60,,,,,,,,,,,,,,,SoundMST/Faucet_C.wav,2,2,SIMILAR,B,,,1,0,0.4073,0,31,31,31,1,,
,,,,,,,,,,,,,,60204c263941fb63d9d794bc,2021-03-21_15h00.56.013,GuessTheSound,2020.2.10,Win32,60,,,,,,,,,,,,,,,SoundMST/Chime_A.wav,2,2,SIMILAR,B,,,1,0,1.01693,0,32,32,32,1,,
,,,,,,,,,,,,,,60204c263941fb63d9d794bc,2021-03-21_15h00.56.013,GuessTheSound,2020.2.10,Win32,60,,,,,,,,,,,,,,,SoundMST/Cough_F.wav,2,2,SIMILAR,B,,,1,0,0.871915,0,33,33,33,1,,
,,,,,,,,,,,,,,60204c263941fb63d9d794bc,2021-03-21_15h00.56.013,GuessTheSound,2020.2.10,Win32,60,,,,,,,,,,,,,,,SoundMST/Heartbeat.wav,2,3,NEW,B,,,2,1,0.39826,0,34,34,34,1,,
,,,,,,,,,,,,,,60204c263941fb63d9d794bc,2021-03-21_15h00.56.013,GuessTheSound,2020.2.10,Win32,60,,,,,,,,,,,,,,,SoundMST/Laugh_D.wav,2,2,SIMILAR,B,,,2,1,0.335205,0,35,35,35,1,,
,,,,,,,,,,,,,,60204c263941fb63d9d794bc,2021-03-21_15h00.56.013,GuessTheSound,2020.2.10,Win32,60,,,,,,,,,,,,,,,SoundMST/Cello.wav,2,3,NEW,B,,,2,1,0.528735,0,36,36,36,1,,
,,,,,,,,,,,,,,60204c263941fb63d9d794bc,2021-03-21_15h00.56.013,GuessTheSound,2020.2.10,Win32,60,,,,,,,,,,,,,,,SoundMST/Piano_D.wav,1,1,OLD,B,,,1,1,0.310675,0,37,37,37,1,,
,,,,,,,,,,,,,,60204c263941fb63d9d794bc,2021-03-21_15h00.56.013,GuessTheSound,2020.2.10,Win32,60,,,,,,,,,,,,,,,SoundMST/Clap_B.wav,2,3,NEW,B,,,2,1,0.61921,0,38,38,38,1,,
,,,,,,,,,,,,,,60204c263941fb63d9d794bc,2021-03-21_15h00.56.013,GuessTheSound,2020.2.10,Win32,60,,,,,,,,,,,,,,,SoundMST/Bagpipe.wav,2,3,NEW,B,,,2,1,0.2892,0,39,39,39,1,,
,,,,,,,,,,,,,,60204c263941fb63d9d794bc,2021-03-21_15h00.56.013,GuessTheSound,2020.2.10,Win32,60,,,,,,,,,,,,,,,SoundMST/Growl_G.wav,2,3,NEW,B,,,2,1,0.502395,0,40,40,40,1,,
,,,,,,,,,,,,,,60204c263941fb63d9d794bc,2021-03-21_15h00.56.013,GuessTheSound,2020.2.10,Win32,60,,,,,,,,,,,,,,,SoundMST/Airplane_B.wav,2,3,NEW,B,,,2,1,0.37414,0,41,41,41,1,,
,,,,,,,,,,,,,,60204c263941fb63d9d794bc,2021-03-21_15h00.56.013,GuessTheSound,2020.2.10,Win32,60,,,,,,,,,,,,,,,SoundMST/Toilet_B.wav,1,1,OLD,B,,,1,1,0.5085,0,42,42,42,1,,
,,,,,,,,,,,,,,60204c263941fb63d9d794bc,2021-03-21_15h00.56.013,GuessTheSound,2020.2.10,Win32,60,,,,,,,,,,,,,,,SoundMST/Hammer_A.wav,2,3,NEW,B,,,2,1,1.05424,0,43,43,43,1,,
,,,,,,,,,,,,,,60204c263941fb63d9d794bc,2021-03-21_15h00.56.013,GuessTheSound,2020.2.10,Win32,60,,,,,,,,,,,,,,,SoundMST/Goat_B.wav,2,3,NEW,B,,,2,1,0.85365,0,44,44,44,1,,
,,,,,,,,,,,,,,60204c263941fb63d9d794bc,2021-03-21_15h00.56.013,GuessTheSound,2020.2.10,Win32,60,,,,,,,,,,,,,,,SoundMST/Coin_D.wav,2,3,NEW,B,,,2,1,0.627425,0,45,45,45,1,,
,,,,,,,,,,,,,,60204c263941fb63d9d794bc,2021-03-21_15h00.56.013,GuessTheSound,2020.2.10,Win32,60,,,,,,,,,,,,,,,SoundMST/Fireworks.wav,1,1,OLD,B,,,1,1,0.47178,0,46,46,46,1,,
,,,,,,,,,,,,,,60204c263941fb63d9d794bc,2021-03-21_15h00.56.013,GuessTheSound,2020.2.10,Win32,60,,,,,,,,,,,,,,,SoundMST/Donkey.wav,2,3,NEW,B,,,2,1,1.41775,0,47,47,47,1,,
,,,,,,,,,,,,,,60204c263941fb63d9d794bc,2021-03-21_15h00.56.013,GuessTheSound,2020.2.10,Win32,60,,,,,,,,,,,,,,,SoundMST/Howl.wav,2,3,NEW,B,,,2,1,0.75745,0,48,48,48,1,,
,,,,,,,,,,,,,,60204c263941fb63d9d794bc,2021-03-21_15h00.56.013,GuessTheSound,2020.2.10,Win32,60,,,,,,,,,,,,,,,SoundMST/Thunder_A.wav,1,1,OLD,B,,,1,1,0.26722,0,49,49,49,1,,
,,,,,,,,,,,,,,60204c263941fb63d9d794bc,2021-03-21_15h00.56.013,GuessTheSound,2020.2.10,Win32,60,,,,,,,,,,,,,,,SoundMST/Whistle_C.wav,2,2,SIMILAR,B,,,2,1,0.379145,0,50,50,50,1,,
,,,,,,,,,,,,,,60204c263941fb63d9d794bc,2021-03-21_15h00.56.013,GuessTheSound,2020.2.10,Win32,60,,,,,,,,,,,,,,,SoundMST/Helicopter_A.wav,2,3,NEW,B,,,2,1,0.289195,0,51,51,51,1,,
,,,,,,,,,,,,,,60204c263941fb63d9d794bc,2021-03-21_15h00.56.013,GuessTheSound,2020.2.10,Win32,60,,,,,,,,,,,,,,,SoundMST/Dog_F.wav,2,2,SIMILAR,B,,,2,1,5.709785,0,52,52,52,1,,
,,,,,,,,,,,,,,60204c263941fb63d9d794bc,2021-03-21_15h00.56.013,GuessTheSound,2020.2.10,Win32,60,,,,,,,,,,,,,,,SoundMST/Horse.wav,2,3,NEW,B,,,2,1,0.697625,0,53,53,53,1,,
,,,,,,,,,,,,,,60204c263941fb63d9d794bc,2021-03-21_15h00.56.013,GuessTheSound,2020.2.10,Win32,60,,,,,,,,,,,,,,,SoundMST/Chomp_A.wav,2,3,NEW,B,,,2,1,5.57055,0,54,54,54,1,,
,,,,,,,,,,,,,,60204c263941fb63d9d794bc,2021-03-21_15h00.56.013,GuessTheSound,2020.2.10,Win32,60,,,,,,,,,,,,,,,SoundMST/Heartbeat.wav,1,1,OLD,B,,,1,1,0.28122,0,55,55,55,1,,
,,,,,,,,,,,,,,60204c263941fb63d9d794bc,2021-03-21_15h00.56.013,GuessTheSound,2020.2.10,Win32,60,,,,,,,,,,,,,,,SoundMST/Clap_C.wav,2,2,SIMILAR,B,,,1,0,0.215015,0,56,56,56,1,,
,,,,,,,,,,,,,,60204c263941fb63d9d794bc,2021-03-21_15h00.56.013,GuessTheSound,2020.2.10,Win32,60,,,,,,,,,,,,,,,SoundMST/Crow_B.wav,2,3,NEW,B,,,1,0,0.34842,0,57,57,57,1,,
,,,,,,,,,,,,,,60204c263941fb63d9d794bc,2021-03-21_15h00.56.013,GuessTheSound,2020.2.10,Win32,60,,,,,,,,,,,,,,,SoundMST/Growl_H.wav,2,2,SIMILAR,B,,,1,0,0.252585,0,58,58,58,1,,
,,,,,,,,,,,,,,60204c263941fb63d9d794bc,2021-03-21_15h00.56.013,GuessTheSound,2020.2.10,Win32,60,,,,,,,,,,,,,,,SoundMST/Printer.wav,2,3,NEW,B,,,2,1,0.32892,0,59,59,59,1,,
,,,,,,,,,,,,,,60204c263941fb63d9d794bc,2021-03-21_15h00.56.013,GuessTheSound,2020.2.10,Win32,60,,,,,,,,,,,,,,,SoundMST/Cello.wav,1,1,OLD,B,,,1,1,0.25683,0,60,60,60,1,,
,,,,,,,,,,,,,,60204c263941fb63d9d794bc,2021-03-21_15h00.56.013,GuessTheSound,2020.2.10,Win32,60,,,,,,,,,,,,,,,SoundMST/Snore_E.wav,2,2,SIMILAR,B,,,1,0,1.304675,0,61,61,61,1,,
,,,,,,,,,,,,,,60204c263941fb63d9d794bc,2021-03-21_15h00.56.013,GuessTheSound,2020.2.10,Win32,60,,,,,,,,,,,,,,,SoundMST/CarStart_E.wav,2,3,NEW,B,,,2,1,0.323555,0,62,62,62,1,,
,,,,,,,,,,,,,,60204c263941fb63d9d794bc,2021-03-21_15h00.56.013,GuessTheSound,2020.2.10,Win32,60,,,,,,,,,,,,,,,SoundMST/Goat_C.wav,2,2,SIMILAR,B,,,1,0,0.25807,0,63,63,63,1,,
,,,,,,,,,,,,,,60204c263941fb63d9d794bc,2021-03-21_15h00.56.013,GuessTheSound,2020.2.10,Win32,60,,,,,,,,,,,,,,,SoundMST/Coin_E.wav,2,2,SIMILAR,B,,,1,0,0.345515,0,64,64,64,1,,
,,,,,,,,,,,,,,60204c263941fb63d9d794bc,2021-03-21_15h00.56.013,GuessTheSound,2020.2.10,Win32,60,,,,,,,,,,,,,,,SoundMST/Howl.wav,1,1,OLD,B,,,1,1,0.530285,0,65,65,65,1,,
,,,,,,,,,,,,,,60204c263941fb63d9d794bc,2021-03-21_15h00.56.013,GuessTheSound,2020.2.10,Win32,60,,,,,,,,,,,,,,,SoundMST/Airplane_B.wav,1,1,OLD,B,,,1,1,0.345125,0,66,66,66,1,,
,,,,,,,,,,,,,,60204c263941fb63d9d794bc,2021-03-21_15h00.56.013,GuessTheSound,2020.2.10,Win32,60,,,,,,,,,,,,,,,SoundMST/Mosquito_B.wav,1,1,OLD,B,,,2,0,0.293335,0,67,67,67,1,,
,,,,,,,,,,,,,,60204c263941fb63d9d794bc,2021-03-21_15h00.56.013,GuessTheSound,2020.2.10,Win32,60,,,,,,,,,,,,,,,SoundMST/Droplet_B.wav,2,3,NEW,B,,,2,1,0.567465,0,68,68,68,1,,
,,,,,,,,,,,,,,60204c263941fb63d9d794bc,2021-03-21_15h00.56.013,GuessTheSound,2020.2.10,Win32,60,,,,,,,,,,,,,,,SoundMST/Donkey.wav,1,1,OLD,B,,,1,1,0.217005,0,69,69,69,1,,
,,,,,,,,,,,,,,60204c263941fb63d9d794bc,2021-03-21_15h00.56.013,GuessTheSound,2020.2.10,Win32,60,,,,,,,,,,,,,,,SoundMST/Guitar_B.wav,2,3,NEW,B,,,2,1,0.465,0,70,70,70,1,,
,,,,,,,,,,,,,,60204c263941fb63d9d794bc,2021-03-21_15h00.56.013,GuessTheSound,2020.2.10,Win32,60,,,,,,,,,,,,,,,SoundMST/Bagpipe.wav,1,1,OLD,B,,,1,1,0.07698,0,71,71,71,1,,
,,,,,,,,,,,,,,60204c263941fb63d9d794bc,2021-03-21_15h00.56.013,GuessTheSound,2020.2.10,Win32,60,,,,,,,,,,,,,,,SoundMST/Hammer_A.wav,2,3,NEW,B,,,2,1,1.234245,0,72,72,72,1,,
,,,,,,,,,,,,,,60204c263941fb63d9d794bc,2021-03-21_15h00.56.013,GuessTheSound,2020.2.10,Win32,60,,,,,,,,,,,,,,,SoundMST/Helicopter_A.wav,1,1,OLD,B,,,1,1,0.834585,0,73,73,73,1,,
,,,,,,,,,,,,,,60204c263941fb63d9d794bc,2021-03-21_15h00.56.013,GuessTheSound,2020.2.10,Win32,60,,,,,,,,,,,,,,,SoundMST/Camera.wav,2,3,NEW,B,,,2,1,0.85642,0,74,74,74,1,,
,,,,,,,,,,,,,,60204c263941fb63d9d794bc,2021-03-21_15h00.56.013,GuessTheSound,2020.2.10,Win32,60,,,,,,,,,,,,,,,SoundMST/Steam.wav,2,3,NEW,B,,,2,1,0.1313,0,75,75,75,1,,
,,,,,,,,,,,,,,60204c263941fb63d9d794bc,2021-03-21_15h00.56.013,GuessTheSound,2020.2.10,Win32,60,,,,,,,,,,,,,,,SoundMST/Horse.wav,1,1,OLD,B,,,1,1,2.998135,0,76,76,76,1,,
,,,,,,,,,,,,,,60204c263941fb63d9d794bc,2021-03-21_15h00.56.013,GuessTheSound,2020.2.10,Win32,60,,,,,,,,,,,,,,,SoundMST/Elephant_C.wav,2,3,NEW,B,,,2,1,0.349185,0,77,77,77,1,,
,,,,,,,,,,,,,,60204c263941fb63d9d794bc,2021-03-21_15h00.56.013,GuessTheSound,2020.2.10,Win32,60,,,,,,,,,,,,,,,SoundMST/Printer.wav,1,1,OLD,B,,,1,1,0.343865,0,78,78,78,1,,
,,,,,,,,,,,,,,60204c263941fb63d9d794bc,2021-03-21_15h00.56.013,GuessTheSound,2020.2.10,Win32,60,,,,,,,,,,,,,,,SoundMST/Crow_A.wav,2,2,SIMILAR,B,,,1,0,0.353,0,79,79,79,1,,
,,,,,,,,,,,,,,60204c263941fb63d9d794bc,2021-03-21_15h00.56.013,GuessTheSound,2020.2.10,Win32,60,,,,,,,,,,,,,,,SoundMST/Bubbles_A.wav,2,3,NEW,B,,,2,1,3.05029,0,80,80,80,1,,
,,,,,,,,,,,,,,60204c263941fb63d9d794bc,2021-03-21_15h00.56.013,GuessTheSound,2020.2.10,Win32,60,,,,,,,,,,,,,,,SoundMST/Chomp_C.wav,2,2,SIMILAR,B,,,2,1,0.293315,0,81,81,81,1,,
,,,,,,,,,,,,,,60204c263941fb63d9d794bc,2021-03-21_15h00.56.013,GuessTheSound,2020.2.10,Win32,60,,,,,,,,,,,,,,,SoundMST/Airhorn.wav,2,3,NEW,B,,,2,1,0.07655,0,82,82,82,1,,
,,,,,,,,,,,,,,60204c263941fb63d9d794bc,2021-03-21_15h00.56.013,GuessTheSound,2020.2.10,Win32,60,,,,,,,,,,,,,,,SoundMST/Writing_A.wav,2,3,NEW,B,,,2,1,0.297755,0,83,83,83,1,,
,,,,,,,,,,,,,,60204c263941fb63d9d794bc,2021-03-21_15h00.56.013,GuessTheSound,2020.2.10,Win32,60,,,,,,,,,,,,,,,SoundMST/Cuckoo_A.wav,2,3,NEW,B,,,2,1,0.233855,0,84,84,84,1,,
,,,,,,,,,,,,,,60204c263941fb63d9d794bc,2021-03-21_15h00.56.013,GuessTheSound,2020.2.10,Win32,60,,,,,,,,,,,,,,,SoundMST/IceDrop.wav,2,3,NEW,B,,,2,1,0.337255,0,85,85,85,1,,
,,,,,,,,,,,,,,60204c263941fb63d9d794bc,2021-03-21_15h00.56.013,GuessTheSound,2020.2.10,Win32,60,,,,,,,,,,,,,,,SoundMST/CarStart_A.wav,2,2,SIMILAR,B,,,2,1,0.318775,0,86,86,86,1,,
,,,,,,,,,,,,,,60204c263941fb63d9d794bc,2021-03-21_15h00.56.013,GuessTheSound,2020.2.10,Win32,60,,,,,,,,,,,,,,,SoundMST/Baby_F.wav,2,3,NEW,B,,,2,1,0.969365,0,87,87,87,1,,
,,,,,,,,,,,,,,60204c263941fb63d9d794bc,2021-03-21_15h00.56.013,GuessTheSound,2020.2.10,Win32,60,,,,,,,,,,,,,,,SoundMST/Puff_A.wav,2,3,NEW,B,,,2,1,0.770365,0,88,88,88,1,,
,,,,,,,,,,,,,,60204c263941fb63d9d794bc,2021-03-21_15h00.56.013,GuessTheSound,2020.2.10,Win32,60,,,,,,,,,,,,,,,SoundMST/Droplet_B.wav,1,1,OLD,B,,,1,1,0.96115,0,89,89,89,1,,
,,,,,,,,,,,,,,60204c263941fb63d9d794bc,2021-03-21_15h00.56.013,GuessTheSound,2020.2.10,Win32,60,,,,,,,,,,,,,,,SoundMST/Guitar_B.wav,1,1,OLD,B,,,1,1,0.196125,0,90,90,90,1,,
,,,,,,,,,,,,,,60204c263941fb63d9d794bc,2021-03-21_15h00.56.013,GuessTheSound,2020.2.10,Win32,60,,,,,,,,,,,,,,,SoundMST/PaperRip.wav,2,3,NEW,B,,,2,1,0.415245,0,91,91,91,1,,
,,,,,,,,,,,,,,60204c263941fb63d9d794bc,2021-03-21_15h00.56.013,GuessTheSound,2020.2.10,Win32,60,,,,,,,,,,,,,,,SoundMST/Mosquito_B.wav,1,1,OLD,B,,,1,1,0.4002,0,92,92,92,1,,
,,,,,,,,,,,,,,60204c263941fb63d9d794bc,2021-03-21_15h00.56.013,GuessTheSound,2020.2.10,Win32,60,,,,,,,,,,,,,,,SoundMST/Trumpet_B.wav,2,3,NEW,B,,,2,1,0.48853,0,93,93,93,1,,
,,,,,,,,,,,,,,60204c263941fb63d9d794bc,2021-03-21_15h00.56.013,GuessTheSound,2020.2.10,Win32,60,,,,,,,,,,,,,,,SoundMST/Bullfrog.wav,2,3,NEW,B,,,2,1,0.62125,0,94,94,94,1,,
,,,,,,,,,,,,,,60204c263941fb63d9d794bc,2021-03-21_15h00.56.013,GuessTheSound,2020.2.10,Win32,60,,,,,,,,,,,,,,,SoundMST/Elephant_A.wav,2,2,SIMILAR,B,,,2,1,2.79097,0,95,95,95,1,,
,,,,,,,,,,,,,,60204c263941fb63d9d794bc,2021-03-21_15h00.56.013,GuessTheSound,2020.2.10,Win32,60,,,,,,,,,,,,,,,SoundMST/Sneeze_B.wav,2,3,NEW,B,,,2,1,0.9483,0,96,96,96,1,,
,,,,,,,,,,,,,,60204c263941fb63d9d794bc,2021-03-21_15h00.56.013,GuessTheSound,2020.2.10,Win32,60,,,,,,,,,,,,,,,SoundMST/Camera.wav,1,1,OLD,B,,,1,1,0.65976,0,97,97,97,1,,
,,,,,,,,,,,,,,60204c263941fb63d9d794bc,2021-03-21_15h00.56.013,GuessTheSound,2020.2.10,Win32,60,,,,,,,,,,,,,,,SoundMST/Cat_A.wav,2,3,NEW,B,,,2,1,0.399875,0,98,98,98,1,,
,,,,,,,,,,,,,,60204c263941fb63d9d794bc,2021-03-21_15h00.56.013,GuessTheSound,2020.2.10,Win32,60,,,,,,,,,,,,,,,SoundMST/Steam.wav,1,1,OLD,B,,,1,1,0.33773,0,99,99,99,1,,
,,,,,,,,,,,,,,60204c263941fb63d9d794bc,2021-03-21_15h00.56.013,GuessTheSound,2020.2.10,Win32,60,,,,,,,,,,,,,,,SoundMST/Writing_C.wav,2,2,SIMILAR,B,,,2,1,0.32853,0,100,100,100,1,,
,,,,,,,,,,,,,,60204c263941fb63d9d794bc,2021-03-21_15h00.56.013,GuessTheSound,2020.2.10,Win32,60,,,,,,,,,,,,,,,SoundMST/IceDrop.wav,1,1,OLD,B,,,1,1,0.302355,0,101,101,101,1,,
,,,,,,,,,,,,,,60204c263941fb63d9d794bc,2021-03-21_15h00.56.013,GuessTheSound,2020.2.10,Win32,60,,,,,,,,,,,,,,,SoundMST/Slurp.wav,2,3,NEW,B,,,2,1,0.370815,0,102,102,102,1,,
,,,,,,,,,,,,,,60204c263941fb63d9d794bc,2021-03-21_15h00.56.013,GuessTheSound,2020.2.10,Win32,60,,,,,,,,,,,,,,,SoundMST/Baby_E.wav,2,2,SIMILAR,B,,,2,1,0.34582,0,103,103,103,1,,
,,,,,,,,,,,,,,60204c263941fb63d9d794bc,2021-03-21_15h00.56.013,GuessTheSound,2020.2.10,Win32,60,,,,,,,,,,,,,,,SoundMST/DialTone.wav,2,3,NEW,B,,,2,1,0.89585,0,104,104,104,1,,
,,,,,,,,,,,,,,60204c263941fb63d9d794bc,2021-03-21_15h00.56.013,GuessTheSound,2020.2.10,Win32,60,,,,,,,,,,,,,,,SoundMST/Puff_A.wav,1,1,OLD,B,,,1,1,0.33683,0,105,105,105,1,,
,,,,,,,,,,,,,,60204c263941fb63d9d794bc,2021-03-21_15h00.56.013,GuessTheSound,2020.2.10,Win32,60,,,,,,,,,,,,,,,SoundMST/Buzz.wav,2,3,NEW,B,,,2,1,0.644335,0,106,106,106,1,,
,,,,,,,,,,,,,,60204c263941fb63d9d794bc,2021-03-21_15h00.56.013,GuessTheSound,2020.2.10,Win32,60,,,,,,,,,,,,,,,SoundMST/Airhorn.wav,1,1,OLD,B,,,1,1,0.27324,0,107,107,107,1,,
,,,,,,,,,,,,,,60204c263941fb63d9d794bc,2021-03-21_15h00.56.013,GuessTheSound,2020.2.10,Win32,60,,,,,,,,,,,,,,,SoundMST/Sleighbells_B.wav,2,3,NEW,B,,,2,1,0.53814,0,108,108,108,1,,
,,,,,,,,,,,,,,60204c263941fb63d9d794bc,2021-03-21_15h00.56.013,GuessTheSound,2020.2.10,Win32,60,,,,,,,,,,,,,,,SoundMST/Cuckoo_A.wav,1,1,OLD,B,,,1,1,0.442365,0,109,109,109,1,,
,,,,,,,,,,,,,,60204c263941fb63d9d794bc,2021-03-21_15h00.56.013,GuessTheSound,2020.2.10,Win32,60,,,,,,,,,,,,,,,SoundMST/Wind_B.wav,2,3,NEW,B,,,2,1,0.54423,0,110,110,110,1,,
,,,,,,,,,,,,,,60204c263941fb63d9d794bc,2021-03-21_15h00.56.013,GuessTheSound,2020.2.10,Win32,60,,,,,,,,,,,,,,,SoundMST/Typing.wav,2,3,NEW,B,,,2,1,0.809565,0,111,111,111,1,,
,,,,,,,,,,,,,,60204c263941fb63d9d794bc,2021-03-21_15h00.56.013,GuessTheSound,2020.2.10,Win32,60,,,,,,,,,,,,,,,SoundMST/Bubbles_B.wav,2,2,SIMILAR,B,,,2,1,0.97698,0,112,112,112,1,,
,,,,,,,,,,,,,,60204c263941fb63d9d794bc,2021-03-21_15h00.56.013,GuessTheSound,2020.2.10,Win32,60,,,,,,,,,,,,,,,SoundMST/Duck_A.wav,2,3,NEW,B,,,2,1,1.54048,0,113,113,113,1,,
,,,,,,,,,,,,,,60204c263941fb63d9d794bc,2021-03-21_15h00.56.013,GuessTheSound,2020.2.10,Win32,60,,,,,,,,,,,,,,,SoundMST/Trumpet_B.wav,1,1,OLD,B,,,1,1,0.225245,0,114,114,114,1,,
,,,,,,,,,,,,,,60204c263941fb63d9d794bc,2021-03-21_15h00.56.013,GuessTheSound,2020.2.10,Win32,60,,,,,,,,,,,,,,,SoundMST/PaperRip.wav,1,1,OLD,B,,,1,1,0.43656,0,115,115,115,1,,
,,,,,,,,,,,,,,60204c263941fb63d9d794bc,2021-03-21_15h00.56.013,GuessTheSound,2020.2.10,Win32,60,,,,,,,,,,,,,,,SoundMST/Sneeze_B.wav,1,1,OLD,B,,,1,1,0.713635,0,116,116,116,1,,
,,,,,,,,,,,,,,60204c263941fb63d9d794bc,2021-03-21_15h00.56.013,GuessTheSound,2020.2.10,Win32,60,,,,,,,,,,,,,,,SoundMST/Pour_B.wav,2,3,NEW,B,,,2,1,0.374055,0,117,117,117,1,,
,,,,,,,,,,,,,,60204c263941fb63d9d794bc,2021-03-21_15h00.56.013,GuessTheSound,2020.2.10,Win32,60,,,,,,,,,,,,,,,SoundMST/Cat_A.wav,1,1,OLD,B,,,1,1,0.432595,0,118,118,118,1,,
,,,,,,,,,,,,,,60204c263941fb63d9d794bc,2021-03-21_15h00.56.013,GuessTheSound,2020.2.10,Win32,60,,,,,,,,,,,,,,,SoundMST/Slurp.wav,1,1,OLD,B,,,1,1,0.567435,0,119,119,119,1,,
,,,,,,,,,,,,,,60204c263941fb63d9d794bc,2021-03-21_15h00.56.013,GuessTheSound,2020.2.10,Win32,60,,,,,,,,,,,,,,,SoundMST/Bullfrog.wav,1,1,OLD,B,,,1,1,0.537315,0,120,120,120,1,,
,,,,,,,,,,,,,,60204c263941fb63d9d794bc,2021-03-21_15h00.56.013,GuessTheSound,2020.2.10,Win32,60,,,,,,,,,,,,,,,SoundMST/Wind_B.wav,1,1,OLD,B,,,1,1,0.78339,0,121,121,121,1,,
,,,,,,,,,,,,,,60204c263941fb63d9d794bc,2021-03-21_15h00.56.013,GuessTheSound,2020.2.10,Win32,60,,,,,,,,,,,,,,,SoundMST/Duck_B.wav,2,2,SIMILAR,B,,,2,1,3.57227,0,122,122,122,1,,
,,,,,,,,,,,,,,60204c263941fb63d9d794bc,2021-03-21_15h00.56.013,GuessTheSound,2020.2.10,Win32,60,,,,,,,,,,,,,,,SoundMST/DialTone.wav,1,1,OLD,B,,,1,1,0.360895,0,123,123,123,1,,
,,,,,,,,,,,,,,60204c263941fb63d9d794bc,2021-03-21_15h00.56.013,GuessTheSound,2020.2.10,Win32,60,,,,,,,,,,,,,,,SoundMST/Buzz.wav,1,1,OLD,B,,,1,1,0.368725,0,124,124,124,1,,
,,,,,,,,,,,,,,60204c263941fb63d9d794bc,2021-03-21_15h00.56.013,GuessTheSound,2020.2.10,Win32,60,,,,,,,,,,,,,,,SoundMST/Pour_C.wav,2,2,SIMILAR,B,,,1,0,0.324445,0,125,125,125,1,,
,,,,,,,,,,,,,,60204c263941fb63d9d794bc,2021-03-21_15h00.56.013,GuessTheSound,2020.2.10,Win32,60,,,,,,,,,,,,,,,SoundMST/Typing.wav,1,1,OLD,B,,,1,1,0.31593,0,126,126,126,1,,
,,,,,,,,,,,,,,60204c263941fb63d9d794bc,2021-03-21_15h00.56.013,GuessTheSound,2020.2.10,Win32,60,,,,,,,,,,,,,,,SoundMST/Sleighbells_B.wav,1,1,OLD,B,,,1,1,0.83457,0,127,127,127,1,,
,,,,,,,,,,,,,,60204c263941fb63d9d794bc,2021-03-21_15h00.56.013,GuessTheSound,2020.2.10,Win32,60,,,,,,,,,,,,,,,,,,,,,,,,,,,,,,space,25.665195
