VolumeContinueKey.keys,VolumeContinueKey.rt,HeadphoneContinueKey.keys,HeadphoneContinueKey.rt,CheckResp.keys,CheckResp.corr,CheckResp.rt,trials_2.thisRepN,trials_2.thisTrialN,trials_2.thisN,trials_2.thisIndex,trials_2.ran,File,Correct,participant,session,date,expName,psychopyVersion,OS,frameRate,ContinueResp.keys,ContinueResp.rt,Wel2ContinueKey.keys,Wel2ContinueKey.rt,WelcomeContinueKey2.keys,WelcomeContinueKey2.rt,Practice_resp.keys,Practice_resp.corr,Practice_resp.rt,PracticeLoop.thisRepN,PracticeLoop.thisTrialN,PracticeLoop.thisN,PracticeLoop.thisIndex,PracticeLoop.ran,SoundFile,Correct2,Type,Trial,StartTast.keys,StartTast.rt,MSTResp.keys,MSTResp.corr,MSTResp.rt,trials.thisRepN,trials.thisTrialN,trials.thisN,trials.thisIndex,trials.ran,ExitKey.keys,ExitKey.rt
space,5.288205,space,9.2186,3,0,6.326405,0,0,0,1,1,Headphone/t1_2.wav,1,60244fd7a4f7f31189dd2513,001,2021-03-03_01h23.53.904,GuessTheSound,2020.2.10,Win32,60,,,,,,,,,,,,,,,,,,,,,,,,,,,,,,
,,,,2,1,0.677555,0,1,1,2,1,Headphone/t2_1.wav,2,60244fd7a4f7f31189dd2513,001,2021-03-03_01h23.53.904,GuessTheSound,2020.2.10,Win32,60,,,,,,,,,,,,,,,,,,,,,,,,,,,,,,
,,,,1,0,0.233795,0,2,2,5,1,Headphone/t3_2.wav,3,60244fd7a4f7f31189dd2513,001,2021-03-03_01h23.53.904,GuessTheSound,2020.2.10,Win32,60,,,,,,,,,,,,,,,,,,,,,,,,,,,,,,
,,,,3,1,3.289885,0,3,3,4,1,Headphone/t3_1.wav,3,60244fd7a4f7f31189dd2513,001,2021-03-03_01h23.53.904,GuessTheSound,2020.2.10,Win32,60,,,,,,,,,,,,,,,,,,,,,,,,,,,,,,
,,,,1,1,0.049855,0,4,4,0,1,Headphone/t1_1.wav,1,60244fd7a4f7f31189dd2513,001,2021-03-03_01h23.53.904,GuessTheSound,2020.2.10,Win32,60,,,,,,,,,,,,,,,,,,,,,,,,,,,,,,
,,,,2,1,1.1634,0,5,5,3,1,Headphone/t2_2.wav,2,60244fd7a4f7f31189dd2513,001,2021-03-03_01h23.53.904,GuessTheSound,2020.2.10,Win32,60,,,,,,,,,,,,,,,,,,,,,,,,,,,,,,
,,,,,,,,,,,,,2,60244fd7a4f7f31189dd2513,001,2021-03-03_01h23.53.904,GuessTheSound,2020.2.10,Win32,60,space,8.14509,space,14.083645,space,5.059625,3,1,4.628255,0,0,0,0,1,Practice/Seagull_A.wav,3,NEW,Practice,,,,,,,,,,,,
,,,,,,,,,,,,,2,60244fd7a4f7f31189dd2513,001,2021-03-03_01h23.53.904,GuessTheSound,2020.2.10,Win32,60,,,,,,,3,1,5.12477,0,1,1,1,1,Practice/Skid_B.wav,3,NEW,Practice,,,,,,,,,,,,
,,,,,,,,,,,,,1,60244fd7a4f7f31189dd2513,001,2021-03-03_01h23.53.904,GuessTheSound,2020.2.10,Win32,60,,,,,,,1,1,1.257805,0,2,2,2,1,Practice/Seagull_A.wav,1,OLD,Practice,,,,,,,,,,,,
,,,,,,,,,,,,,2,60244fd7a4f7f31189dd2513,001,2021-03-03_01h23.53.904,GuessTheSound,2020.2.10,Win32,60,,,,,,,3,1,1.773025,0,3,3,3,1,Practice/Gargle_A.wav,3,NEW,Practice,,,,,,,,,,,,
,,,,,,,,,,,,,2,60244fd7a4f7f31189dd2513,001,2021-03-03_01h23.53.904,GuessTheSound,2020.2.10,Win32,60,,,,,,,2,1,26.74814,0,4,4,4,1,Practice/Gargle_B.wav,2,SIMILAR,Practice,,,,,,,,,,,,
,,,,,,,,,,,,,2,60244fd7a4f7f31189dd2513,001,2021-03-03_01h23.53.904,GuessTheSound,2020.2.10,Win32,60,,,,,,,,,,,,,,,CarStart_F.wav,3,NEW,C,space,5.0877,3,1,5.97272,0,0,0,0,1,,
,,,,,,,,,,,,,2,60244fd7a4f7f31189dd2513,001,2021-03-03_01h23.53.904,GuessTheSound,2020.2.10,Win32,60,,,,,,,,,,,,,,,Bird_E.wav,3,NEW,C,,,3,1,0.53456,0,1,1,1,1,,
,,,,,,,,,,,,,2,60244fd7a4f7f31189dd2513,001,2021-03-03_01h23.53.904,GuessTheSound,2020.2.10,Win32,60,,,,,,,,,,,,,,,Initial/Doubled/Bubbles_A.wav,3,NEW,C,,,3,1,0.31716,0,2,2,2,1,,
,,,,,,,,,,,,,2,60244fd7a4f7f31189dd2513,001,2021-03-03_01h23.53.904,GuessTheSound,2020.2.10,Win32,60,,,,,,,,,,,,,,,Test/Foils/Horse.wav,3,NEW,C,,,3,1,0.70066,0,3,3,3,1,,
,,,,,,,,,,,,,2,60244fd7a4f7f31189dd2513,001,2021-03-03_01h23.53.904,GuessTheSound,2020.2.10,Win32,60,,,,,,,,,,,,,,,Initial/Repeat/IceDrop.wav,3,NEW,C,,,3,1,0.610845,0,4,4,4,1,,
,,,,,,,,,,,,,2,60244fd7a4f7f31189dd2513,001,2021-03-03_01h23.53.904,GuessTheSound,2020.2.10,Win32,60,,,,,,,,,,,,,,,Initial/NoRepeat/Sleighbells_B.wav,3,NEW,C,,,3,1,0.56005,0,5,5,5,1,,
,,,,,,,,,,,,,2,60244fd7a4f7f31189dd2513,001,2021-03-03_01h23.53.904,GuessTheSound,2020.2.10,Win32,60,,,,,,,,,,,,,,,Growl_G.wav,3,NEW,C,,,3,1,0.457645,0,6,6,6,1,,
,,,,,,,,,,,,,2,60244fd7a4f7f31189dd2513,001,2021-03-03_01h23.53.904,GuessTheSound,2020.2.10,Win32,60,,,,,,,,,,,,,,,Initial/Doubled/Chicken_A.wav,3,NEW,C,,,3,1,0.310085,0,7,7,7,1,,
,,,,,,,,,,,,,2,60244fd7a4f7f31189dd2513,001,2021-03-03_01h23.53.904,GuessTheSound,2020.2.10,Win32,60,,,,,,,,,,,,,,,Test/Foils/Slurp.wav,3,NEW,C,,,3,1,0.27624,0,8,8,8,1,,
,,,,,,,,,,,,,2,60244fd7a4f7f31189dd2513,001,2021-03-03_01h23.53.904,GuessTheSound,2020.2.10,Win32,60,,,,,,,,,,,,,,,CarStart_E.wav,2,SIMILAR,C,,,2,1,0.66295,0,9,9,9,1,,
,,,,,,,,,,,,,2,60244fd7a4f7f31189dd2513,001,2021-03-03_01h23.53.904,GuessTheSound,2020.2.10,Win32,60,,,,,,,,,,,,,,,Initial/Repeat/Printer.wav,3,NEW,C,,,3,1,0.24598,0,10,10,10,1,,
,,,,,,,,,,,,,2,60244fd7a4f7f31189dd2513,001,2021-03-03_01h23.53.904,GuessTheSound,2020.2.10,Win32,60,,,,,,,,,,,,,,,Test/Foils/Bowlingpins.wav,3,NEW,C,,,3,1,0.269875,0,11,11,11,1,,
,,,,,,,,,,,,,2,60244fd7a4f7f31189dd2513,001,2021-03-03_01h23.53.904,GuessTheSound,2020.2.10,Win32,60,,,,,,,,,,,,,,,Initial/NoRepeat/Fireworks.wav,3,NEW,C,,,3,1,0.337385,0,12,12,12,1,,
,,,,,,,,,,,,,2,60244fd7a4f7f31189dd2513,001,2021-03-03_01h23.53.904,GuessTheSound,2020.2.10,Win32,60,,,,,,,,,,,,,,,Initial/Repeat/Howl.wav,3,NEW,C,,,3,1,0.267825,0,13,13,13,1,,
,,,,,,,,,,,,,2,60244fd7a4f7f31189dd2513,001,2021-03-03_01h23.53.904,GuessTheSound,2020.2.10,Win32,60,,,,,,,,,,,,,,,Goat_D.wav,3,NEW,C,,,3,1,0.35569,0,14,14,14,1,,
,,,,,,,,,,,,,1,60244fd7a4f7f31189dd2513,001,2021-03-03_01h23.53.904,GuessTheSound,2020.2.10,Win32,60,,,,,,,,,,,,,,,Test/Foils/Horse.wav,1,OLD,C,,,1,1,0.507065,0,15,15,15,1,,
,,,,,,,,,,,,,2,60244fd7a4f7f31189dd2513,001,2021-03-03_01h23.53.904,GuessTheSound,2020.2.10,Win32,60,,,,,,,,,,,,,,,Laugh_C.wav,3,NEW,C,,,3,1,0.234545,0,16,16,16,1,,
,,,,,,,,,,,,,2,60244fd7a4f7f31189dd2513,001,2021-03-03_01h23.53.904,GuessTheSound,2020.2.10,Win32,60,,,,,,,,,,,,,,,Test/Lures/Bubbles_B.wav,2,SIMILAR,C,,,2,1,0.424835,0,17,17,17,1,,
,,,,,,,,,,,,,2,60244fd7a4f7f31189dd2513,001,2021-03-03_01h23.53.904,GuessTheSound,2020.2.10,Win32,60,,,,,,,,,,,,,,,Footsteps_G.wav,3,NEW,C,,,3,1,0.286465,0,18,18,18,1,,
,,,,,,,,,,,,,2,60244fd7a4f7f31189dd2513,001,2021-03-03_01h23.53.904,GuessTheSound,2020.2.10,Win32,60,,,,,,,,,,,,,,,Duck_C.wav,3,NEW,C,,,2,0,0.483545,0,19,19,19,1,,
,,,,,,,,,,,,,2,60244fd7a4f7f31189dd2513,001,2021-03-03_01h23.53.904,GuessTheSound,2020.2.10,Win32,60,,,,,,,,,,,,,,,Initial/NoRepeat/Cow.wav,3,NEW,C,,,2,0,3.10962,0,20,20,20,1,,
,,,,,,,,,,,,,2,60244fd7a4f7f31189dd2513,001,2021-03-03_01h23.53.904,GuessTheSound,2020.2.10,Win32,60,,,,,,,,,,,,,,,Test/Foils/Airhorn.wav,3,NEW,C,,,3,1,0.27456,0,21,21,21,1,,
,,,,,,,,,,,,,1,60244fd7a4f7f31189dd2513,001,2021-03-03_01h23.53.904,GuessTheSound,2020.2.10,Win32,60,,,,,,,,,,,,,,,Initial/Repeat/Printer.wav,1,OLD,C,,,1,1,0.48484,0,22,22,22,1,,
,,,,,,,,,,,,,1,60244fd7a4f7f31189dd2513,001,2021-03-03_01h23.53.904,GuessTheSound,2020.2.10,Win32,60,,,,,,,,,,,,,,,Initial/NoRepeat/Sleighbells_B.wav,1,OLD,C,,,1,1,0.32516,0,23,23,23,1,,
,,,,,,,,,,,,,2,60244fd7a4f7f31189dd2513,001,2021-03-03_01h23.53.904,GuessTheSound,2020.2.10,Win32,60,,,,,,,,,,,,,,,Test/Foils/Camera.wav,3,NEW,C,,,3,1,0.700215,0,24,24,24,1,,
,,,,,,,,,,,,,2,60244fd7a4f7f31189dd2513,001,2021-03-03_01h23.53.904,GuessTheSound,2020.2.10,Win32,60,,,,,,,,,,,,,,,Growl_H.wav,2,SIMILAR,C,,,1,0,0.27401,0,25,25,25,1,,
,,,,,,,,,,,,,2,60244fd7a4f7f31189dd2513,001,2021-03-03_01h23.53.904,GuessTheSound,2020.2.10,Win32,60,,,,,,,,,,,,,,,Whistle_A.wav,3,NEW,C,,,3,1,1.56192,0,26,26,26,1,,
,,,,,,,,,,,,,2,60244fd7a4f7f31189dd2513,001,2021-03-03_01h23.53.904,GuessTheSound,2020.2.10,Win32,60,,,,,,,,,,,,,,,Piano_D.wav,3,NEW,C,,,3,1,0.133965,0,27,27,27,1,,
,,,,,,,,,,,,,2,60244fd7a4f7f31189dd2513,001,2021-03-03_01h23.53.904,GuessTheSound,2020.2.10,Win32,60,,,,,,,,,,,,,,,Coin_D.wav,3,NEW,C,,,3,1,0.30179,0,28,28,28,1,,
,,,,,,,,,,,,,2,60244fd7a4f7f31189dd2513,001,2021-03-03_01h23.53.904,GuessTheSound,2020.2.10,Win32,60,,,,,,,,,,,,,,,Bird_F.wav,2,SIMILAR,C,,,2,1,1.07025,0,29,29,29,1,,
,,,,,,,,,,,,,2,60244fd7a4f7f31189dd2513,001,2021-03-03_01h23.53.904,GuessTheSound,2020.2.10,Win32,60,,,,,,,,,,,,,,,Initial/Repeat/PaperRip.wav,3,NEW,C,,,3,1,0.26816,0,30,30,30,1,,
,,,,,,,,,,,,,1,60244fd7a4f7f31189dd2513,001,2021-03-03_01h23.53.904,GuessTheSound,2020.2.10,Win32,60,,,,,,,,,,,,,,,Test/Foils/Slurp.wav,1,OLD,C,,,1,1,0.371185,0,31,31,31,1,,
,,,,,,,,,,,,,1,60244fd7a4f7f31189dd2513,001,2021-03-03_01h23.53.904,GuessTheSound,2020.2.10,Win32,60,,,,,,,,,,,,,,,Initial/Repeat/Howl.wav,1,OLD,C,,,1,1,0.23728,0,32,32,32,1,,
,,,,,,,,,,,,,1,60244fd7a4f7f31189dd2513,001,2021-03-03_01h23.53.904,GuessTheSound,2020.2.10,Win32,60,,,,,,,,,,,,,,,Initial/Repeat/IceDrop.wav,1,OLD,C,,,1,1,0.49209,0,33,33,33,1,,
,,,,,,,,,,,,,2,60244fd7a4f7f31189dd2513,001,2021-03-03_01h23.53.904,GuessTheSound,2020.2.10,Win32,60,,,,,,,,,,,,,,,Pour_E.wav,3,NEW,C,,,3,1,0.324365,0,34,34,34,1,,
,,,,,,,,,,,,,1,60244fd7a4f7f31189dd2513,001,2021-03-03_01h23.53.904,GuessTheSound,2020.2.10,Win32,60,,,,,,,,,,,,,,,Initial/NoRepeat/Fireworks.wav,1,OLD,C,,,1,1,0.26094,0,35,35,35,1,,
,,,,,,,,,,,,,2,60244fd7a4f7f31189dd2513,001,2021-03-03_01h23.53.904,GuessTheSound,2020.2.10,Win32,60,,,,,,,,,,,,,,,Footsteps_F.wav,2,SIMILAR,C,,,1,0,0.201355,0,36,36,36,1,,
,,,,,,,,,,,,,1,60244fd7a4f7f31189dd2513,001,2021-03-03_01h23.53.904,GuessTheSound,2020.2.10,Win32,60,,,,,,,,,,,,,,,Initial/Doubled/Chicken_A.wav,1,OLD,C,,,1,1,0.322675,0,37,37,37,1,,
,,,,,,,,,,,,,2,60244fd7a4f7f31189dd2513,001,2021-03-03_01h23.53.904,GuessTheSound,2020.2.10,Win32,60,,,,,,,,,,,,,,,Test/Foils/Bullfrog.wav,3,NEW,C,,,3,1,0.769145,0,38,38,38,1,,
,,,,,,,,,,,,,1,60244fd7a4f7f31189dd2513,001,2021-03-03_01h23.53.904,GuessTheSound,2020.2.10,Win32,60,,,,,,,,,,,,,,,Test/Foils/Bowlingpins.wav,1,OLD,C,,,1,1,0.280605,0,39,39,39,1,,
,,,,,,,,,,,,,2,60244fd7a4f7f31189dd2513,001,2021-03-03_01h23.53.904,GuessTheSound,2020.2.10,Win32,60,,,,,,,,,,,,,,,Initial/NoRepeat/Helicopter_A.wav,3,NEW,C,,,3,1,0.2192,0,40,40,40,1,,
,,,,,,,,,,,,,2,60244fd7a4f7f31189dd2513,001,2021-03-03_01h23.53.904,GuessTheSound,2020.2.10,Win32,60,,,,,,,,,,,,,,,Goat_E.wav,2,SIMILAR,C,,,1,0,0.12981,0,41,41,41,1,,
,,,,,,,,,,,,,2,60244fd7a4f7f31189dd2513,001,2021-03-03_01h23.53.904,GuessTheSound,2020.2.10,Win32,60,,,,,,,,,,,,,,,Initial/Doubled/HairDryer_A.wav,3,NEW,C,,,2,0,0.24496,0,42,42,42,1,,
,,,,,,,,,,,,,2,60244fd7a4f7f31189dd2513,001,2021-03-03_01h23.53.904,GuessTheSound,2020.2.10,Win32,60,,,,,,,,,,,,,,,Duck_D.wav,2,SIMILAR,C,,,1,0,0.59227,0,43,43,43,1,,
,,,,,,,,,,,,,1,60244fd7a4f7f31189dd2513,001,2021-03-03_01h23.53.904,GuessTheSound,2020.2.10,Win32,60,,,,,,,,,,,,,,,Initial/Repeat/PaperRip.wav,1,OLD,C,,,1,1,0.24989,0,44,44,44,1,,
,,,,,,,,,,,,,2,60244fd7a4f7f31189dd2513,001,2021-03-03_01h23.53.904,GuessTheSound,2020.2.10,Win32,60,,,,,,,,,,,,,,,Dog_E.wav,3,NEW,C,,,3,1,0.358825,0,45,45,45,1,,
,,,,,,,,,,,,,1,60244fd7a4f7f31189dd2513,001,2021-03-03_01h23.53.904,GuessTheSound,2020.2.10,Win32,60,,,,,,,,,,,,,,,Test/Foils/Camera.wav,1,OLD,C,,,2,0,2.226285,0,46,46,46,1,,
,,,,,,,,,,,,,2,60244fd7a4f7f31189dd2513,001,2021-03-03_01h23.53.904,GuessTheSound,2020.2.10,Win32,60,,,,,,,,,,,,,,,Laugh_F.wav,2,SIMILAR,C,,,2,1,0.280065,0,47,47,47,1,,
,,,,,,,,,,,,,2,60244fd7a4f7f31189dd2513,001,2021-03-03_01h23.53.904,GuessTheSound,2020.2.10,Win32,60,,,,,,,,,,,,,,,Initial/Repeat/Sneeze_B.wav,3,NEW,C,,,3,1,0.289485,0,48,48,48,1,,
,,,,,,,,,,,,,1,60244fd7a4f7f31189dd2513,001,2021-03-03_01h23.53.904,GuessTheSound,2020.2.10,Win32,60,,,,,,,,,,,,,,,Initial/NoRepeat/Cow.wav,1,OLD,C,,,1,1,0.2739,0,49,49,49,1,,
,,,,,,,,,,,,,2,60244fd7a4f7f31189dd2513,001,2021-03-03_01h23.53.904,GuessTheSound,2020.2.10,Win32,60,,,,,,,,,,,,,,,Test/Foils/Donkey.wav,3,NEW,C,,,3,1,0.539665,0,50,50,50,1,,
,,,,,,,,,,,,,2,60244fd7a4f7f31189dd2513,001,2021-03-03_01h23.53.904,GuessTheSound,2020.2.10,Win32,60,,,,,,,,,,,,,,,Coin_E.wav,2,SIMILAR,C,,,2,1,0.27088,0,51,51,51,1,,
,,,,,,,,,,,,,2,60244fd7a4f7f31189dd2513,001,2021-03-03_01h23.53.904,GuessTheSound,2020.2.10,Win32,60,,,,,,,,,,,,,,,Initial/Repeat/Buzz.wav,3,NEW,C,,,3,1,1.236165,0,52,52,52,1,,
,,,,,,,,,,,,,1,60244fd7a4f7f31189dd2513,001,2021-03-03_01h23.53.904,GuessTheSound,2020.2.10,Win32,60,,,,,,,,,,,,,,,Piano_D.wav,1,OLD,C,,,1,1,0.055645,0,53,53,53,1,,
,,,,,,,,,,,,,2,60244fd7a4f7f31189dd2513,001,2021-03-03_01h23.53.904,GuessTheSound,2020.2.10,Win32,60,,,,,,,,,,,,,,,Initial/NoRepeat/Hammer_A.wav,3,NEW,C,,,3,1,1.334715,0,54,54,54,1,,
,,,,,,,,,,,,,1,60244fd7a4f7f31189dd2513,001,2021-03-03_01h23.53.904,GuessTheSound,2020.2.10,Win32,60,,,,,,,,,,,,,,,Test/Foils/Airhorn.wav,1,OLD,C,,,1,1,0.323975,0,55,55,55,1,,
,,,,,,,,,,,,,2,60244fd7a4f7f31189dd2513,001,2021-03-03_01h23.53.904,GuessTheSound,2020.2.10,Win32,60,,,,,,,,,,,,,,,Whistle_C.wav,2,SIMILAR,C,,,2,1,0.3017,0,56,56,56,1,,
,,,,,,,,,,,,,2,60244fd7a4f7f31189dd2513,001,2021-03-03_01h23.53.904,GuessTheSound,2020.2.10,Win32,60,,,,,,,,,,,,,,,Faucet_D.wav,3,NEW,C,,,3,1,0.86645,0,57,57,57,1,,
,,,,,,,,,,,,,2,60244fd7a4f7f31189dd2513,001,2021-03-03_01h23.53.904,GuessTheSound,2020.2.10,Win32,60,,,,,,,,,,,,,,,Pour_C.wav,2,SIMILAR,C,,,2,1,0.321405,0,58,58,58,1,,
,,,,,,,,,,,,,2,60244fd7a4f7f31189dd2513,001,2021-03-03_01h23.53.904,GuessTheSound,2020.2.10,Win32,60,,,,,,,,,,,,,,,Crow_B.wav,3,NEW,C,,,2,0,1.937185,0,59,59,59,1,,
,,,,,,,,,,,,,2,60244fd7a4f7f31189dd2513,001,2021-03-03_01h23.53.904,GuessTheSound,2020.2.10,Win32,60,,,,,,,,,,,,,,,Initial/Repeat/Trumpet_B.wav,3,NEW,C,,,3,1,0.118325,0,60,60,60,1,,
,,,,,,,,,,,,,1,60244fd7a4f7f31189dd2513,001,2021-03-03_01h23.53.904,GuessTheSound,2020.2.10,Win32,60,,,,,,,,,,,,,,,Test/Foils/Bullfrog.wav,1,OLD,C,,,1,1,0.9673,0,61,61,61,1,,
,,,,,,,,,,,,,1,60244fd7a4f7f31189dd2513,001,2021-03-03_01h23.53.904,GuessTheSound,2020.2.10,Win32,60,,,,,,,,,,,,,,,Initial/NoRepeat/Helicopter_A.wav,1,OLD,C,,,1,1,0.32644,0,62,62,62,1,,
,,,,,,,,,,,,,2,60244fd7a4f7f31189dd2513,001,2021-03-03_01h23.53.904,GuessTheSound,2020.2.10,Win32,60,,,,,,,,,,,,,,,Elephant_C.wav,3,NEW,C,,,2,0,2.800985,0,63,63,63,1,,
,,,,,,,,,,,,,1,60244fd7a4f7f31189dd2513,001,2021-03-03_01h23.53.904,GuessTheSound,2020.2.10,Win32,60,,,,,,,,,,,,,,,Initial/Repeat/Sneeze_B.wav,1,OLD,C,,,1,1,0.51692,0,64,64,64,1,,
,,,,,,,,,,,,,2,60244fd7a4f7f31189dd2513,001,2021-03-03_01h23.53.904,GuessTheSound,2020.2.10,Win32,60,,,,,,,,,,,,,,,Chime_B.wav,3,NEW,C,,,3,1,0.32696,0,65,65,65,1,,
,,,,,,,,,,,,,2,60244fd7a4f7f31189dd2513,001,2021-03-03_01h23.53.904,GuessTheSound,2020.2.10,Win32,60,,,,,,,,,,,,,,,Phone_D.wav,3,NEW,C,,,2,0,0.05811,0,66,66,66,1,,
,,,,,,,,,,,,,1,60244fd7a4f7f31189dd2513,001,2021-03-03_01h23.53.904,GuessTheSound,2020.2.10,Win32,60,,,,,,,,,,,,,,,Initial/Doubled/HairDryer_A.wav,1,OLD,C,,,1,1,0.044255,0,67,67,67,1,,
,,,,,,,,,,,,,2,60244fd7a4f7f31189dd2513,001,2021-03-03_01h23.53.904,GuessTheSound,2020.2.10,Win32,60,,,,,,,,,,,,,,,Initial/NoRepeat/Puff_A.wav,3,NEW,C,,,2,0,1.116835,0,68,68,68,1,,
,,,,,,,,,,,,,2,60244fd7a4f7f31189dd2513,001,2021-03-03_01h23.53.904,GuessTheSound,2020.2.10,Win32,60,,,,,,,,,,,,,,,Dog_F.wav,2,SIMILAR,C,,,2,1,0.46705,0,69,69,69,1,,
,,,,,,,,,,,,,1,60244fd7a4f7f31189dd2513,001,2021-03-03_01h23.53.904,GuessTheSound,2020.2.10,Win32,60,,,,,,,,,,,,,,,Test/Foils/Donkey.wav,1,OLD,C,,,1,1,0.090355,0,70,70,70,1,,
,,,,,,,,,,,,,2,60244fd7a4f7f31189dd2513,001,2021-03-03_01h23.53.904,GuessTheSound,2020.2.10,Win32,60,,,,,,,,,,,,,,,Initial/NoRepeat/Toilet_B.wav,3,NEW,C,,,3,1,0.12742,0,71,71,71,1,,
,,,,,,,,,,,,,2,60244fd7a4f7f31189dd2513,001,2021-03-03_01h23.53.904,GuessTheSound,2020.2.10,Win32,60,,,,,,,,,,,,,,,Initial/Doubled/Writing_A.wav,3,NEW,C,,,3,1,0.206035,0,72,72,72,1,,
,,,,,,,,,,,,,2,60244fd7a4f7f31189dd2513,001,2021-03-03_01h23.53.904,GuessTheSound,2020.2.10,Win32,60,,,,,,,,,,,,,,,Initial/Repeat/Cello.wav,3,NEW,C,,,3,1,0.11748,0,73,73,73,1,,
,,,,,,,,,,,,,2,60244fd7a4f7f31189dd2513,001,2021-03-03_01h23.53.904,GuessTheSound,2020.2.10,Win32,60,,,,,,,,,,,,,,,Crow_A.wav,2,SIMILAR,C,,,2,1,0.252085,0,74,74,74,1,,
,,,,,,,,,,,,,1,60244fd7a4f7f31189dd2513,001,2021-03-03_01h23.53.904,GuessTheSound,2020.2.10,Win32,60,,,,,,,,,,,,,,,Initial/NoRepeat/Hammer_A.wav,1,OLD,C,,,1,1,0.19248,0,75,75,75,1,,
,,,,,,,,,,,,,2,60244fd7a4f7f31189dd2513,001,2021-03-03_01h23.53.904,GuessTheSound,2020.2.10,Win32,60,,,,,,,,,,,,,,,Initial/Doubled/Cuckoo_A.wav,3,NEW,C,,,3,1,0.01948,0,76,76,76,1,,
,,,,,,,,,,,,,1,60244fd7a4f7f31189dd2513,001,2021-03-03_01h23.53.904,GuessTheSound,2020.2.10,Win32,60,,,,,,,,,,,,,,,Initial/Repeat/Buzz.wav,1,OLD,C,,,1,1,0.338135,0,77,77,77,1,,
,,,,,,,,,,,,,2,60244fd7a4f7f31189dd2513,001,2021-03-03_01h23.53.904,GuessTheSound,2020.2.10,Win32,60,,,,,,,,,,,,,,,Siren_E.wav,3,NEW,C,,,3,1,0.047355,0,78,78,78,1,,
,,,,,,,,,,,,,1,60244fd7a4f7f31189dd2513,001,2021-03-03_01h23.53.904,GuessTheSound,2020.2.10,Win32,60,,,,,,,,,,,,,,,Initial/Repeat/Trumpet_B.wav,1,OLD,C,,,1,1,0.312235,0,79,79,79,1,,
,,,,,,,,,,,,,2,60244fd7a4f7f31189dd2513,001,2021-03-03_01h23.53.904,GuessTheSound,2020.2.10,Win32,60,,,,,,,,,,,,,,,Test/Foils/Wind_B.wav,3,NEW,C,,,3,1,0.218785,0,80,80,80,1,,
,,,,,,,,,,,,,2,60244fd7a4f7f31189dd2513,001,2021-03-03_01h23.53.904,GuessTheSound,2020.2.10,Win32,60,,,,,,,,,,,,,,,Initial/Doubled/Cat_A.wav,3,NEW,C,,,3,1,0.07334,0,81,81,81,1,,
,,,,,,,,,,,,,2,60244fd7a4f7f31189dd2513,001,2021-03-03_01h23.53.904,GuessTheSound,2020.2.10,Win32,60,,,,,,,,,,,,,,,Phone_E.wav,2,SIMILAR,C,,,2,1,0.2526,0,82,82,82,1,,
,,,,,,,,,,,,,2,60244fd7a4f7f31189dd2513,001,2021-03-03_01h23.53.904,GuessTheSound,2020.2.10,Win32,60,,,,,,,,,,,,,,,Chomp_F.wav,3,NEW,C,,,3,1,0.2668,0,83,83,83,1,,
,,,,,,,,,,,,,2,60244fd7a4f7f31189dd2513,001,2021-03-03_01h23.53.904,GuessTheSound,2020.2.10,Win32,60,,,,,,,,,,,,,,,Elephant_D.wav,2,SIMILAR,C,,,2,1,0.232825,0,84,84,84,1,,
,,,,,,,,,,,,,2,60244fd7a4f7f31189dd2513,001,2021-03-03_01h23.53.904,GuessTheSound,2020.2.10,Win32,60,,,,,,,,,,,,,,,Initial/Repeat/Cup.wav,3,NEW,C,,,2,0,0.322575,0,85,85,85,1,,
,,,,,,,,,,,,,2,60244fd7a4f7f31189dd2513,001,2021-03-03_01h23.53.904,GuessTheSound,2020.2.10,Win32,60,,,,,,,,,,,,,,,Chime_A.wav,2,SIMILAR,C,,,2,1,2.402935,0,86,86,86,1,,
,,,,,,,,,,,,,2,60244fd7a4f7f31189dd2513,001,2021-03-03_01h23.53.904,GuessTheSound,2020.2.10,Win32,60,,,,,,,,,,,,,,,Initial/NoRepeat/Droplet_B.wav,3,NEW,C,,,2,0,0.167755,0,87,87,87,1,,
,,,,,,,,,,,,,2,60244fd7a4f7f31189dd2513,001,2021-03-03_01h23.53.904,GuessTheSound,2020.2.10,Win32,60,,,,,,,,,,,,,,,Faucet_C.wav,2,SIMILAR,C,,,2,1,0.263935,0,88,88,88,1,,
,,,,,,,,,,,,,1,60244fd7a4f7f31189dd2513,001,2021-03-03_01h23.53.904,GuessTheSound,2020.2.10,Win32,60,,,,,,,,,,,,,,,Initial/NoRepeat/Puff_A.wav,1,OLD,C,,,1,1,0.34539,0,89,89,89,1,,
,,,,,,,,,,,,,2,60244fd7a4f7f31189dd2513,001,2021-03-03_01h23.53.904,GuessTheSound,2020.2.10,Win32,60,,,,,,,,,,,,,,,Clap_B.wav,3,NEW,C,,,3,1,0.162745,0,90,90,90,1,,
,,,,,,,,,,,,,1,60244fd7a4f7f31189dd2513,001,2021-03-03_01h23.53.904,GuessTheSound,2020.2.10,Win32,60,,,,,,,,,,,,,,,Initial/Repeat/Cello.wav,1,OLD,C,,,1,1,0.257535,0,91,91,91,1,,
,,,,,,,,,,,,,2,60244fd7a4f7f31189dd2513,001,2021-03-03_01h23.53.904,GuessTheSound,2020.2.10,Win32,60,,,,,,,,,,,,,,,Initial/NoRepeat/Mosquito_B.wav,3,NEW,C,,,3,1,0.153325,0,92,92,92,1,,
,,,,,,,,,,,,,2,60244fd7a4f7f31189dd2513,001,2021-03-03_01h23.53.904,GuessTheSound,2020.2.10,Win32,60,,,,,,,,,,,,,,,Writing_C.wav,2,SIMILAR,C,,,2,1,0.202035,0,93,93,93,1,,
,,,,,,,,,,,,,2,60244fd7a4f7f31189dd2513,001,2021-03-03_01h23.53.904,GuessTheSound,2020.2.10,Win32,60,,,,,,,,,,,,,,,Test/Lures/Guitar_B.wav,3,NEW,C,,,3,1,0.180575,0,94,94,94,1,,
,,,,,,,,,,,,,1,60244fd7a4f7f31189dd2513,001,2021-03-03_01h23.53.904,GuessTheSound,2020.2.10,Win32,60,,,,,,,,,,,,,,,Initial/NoRepeat/Toilet_B.wav,1,OLD,C,,,3,0,0.176775,0,95,95,95,1,,
,,,,,,,,,,,,,2,60244fd7a4f7f31189dd2513,001,2021-03-03_01h23.53.904,GuessTheSound,2020.2.10,Win32,60,,,,,,,,,,,,,,,Initial/Repeat/Bagpipe.wav,3,NEW,C,,,3,1,0.103025,0,96,96,96,1,,
,,,,,,,,,,,,,1,60244fd7a4f7f31189dd2513,001,2021-03-03_01h23.53.904,GuessTheSound,2020.2.10,Win32,60,,,,,,,,,,,,,,,Initial/Doubled/Cuckoo_A.wav,1,OLD,C,,,1,1,0.110925,0,97,97,97,1,,
,,,,,,,,,,,,,1,60244fd7a4f7f31189dd2513,001,2021-03-03_01h23.53.904,GuessTheSound,2020.2.10,Win32,60,,,,,,,,,,,,,,,Test/Foils/Wind_B.wav,1,OLD,C,,,1,1,0.19772,0,98,98,98,1,,
,,,,,,,,,,,,,2,60244fd7a4f7f31189dd2513,001,2021-03-03_01h23.53.904,GuessTheSound,2020.2.10,Win32,60,,,,,,,,,,,,,,,Cough_G.wav,3,NEW,C,,,3,1,0.935655,0,99,99,99,1,,
,,,,,,,,,,,,,2,60244fd7a4f7f31189dd2513,001,2021-03-03_01h23.53.904,GuessTheSound,2020.2.10,Win32,60,,,,,,,,,,,,,,,Initial/Repeat/ManWhistle.wav,3,NEW,C,,,3,1,0.159895,0,100,100,100,1,,
,,,,,,,,,,,,,2,60244fd7a4f7f31189dd2513,001,2021-03-03_01h23.53.904,GuessTheSound,2020.2.10,Win32,60,,,,,,,,,,,,,,,Chomp_E.wav,2,SIMILAR,C,,,2,1,0.272845,0,101,101,101,1,,
,,,,,,,,,,,,,2,60244fd7a4f7f31189dd2513,001,2021-03-03_01h23.53.904,GuessTheSound,2020.2.10,Win32,60,,,,,,,,,,,,,,,Siren_B.wav,2,SIMILAR,C,,,1,0,0.489955,0,102,102,102,1,,
,,,,,,,,,,,,,2,60244fd7a4f7f31189dd2513,001,2021-03-03_01h23.53.904,GuessTheSound,2020.2.10,Win32,60,,,,,,,,,,,,,,,Initial/NoRepeat/Thunder_A.wav,3,NEW,C,,,3,1,0.15457,0,103,103,103,1,,
,,,,,,,,,,,,,1,60244fd7a4f7f31189dd2513,001,2021-03-03_01h23.53.904,GuessTheSound,2020.2.10,Win32,60,,,,,,,,,,,,,,,Initial/Doubled/Cat_A.wav,1,OLD,C,,,2,0,1.066985,0,104,104,104,1,,
,,,,,,,,,,,,,2,60244fd7a4f7f31189dd2513,001,2021-03-03_01h23.53.904,GuessTheSound,2020.2.10,Win32,60,,,,,,,,,,,,,,,Snore_D.wav,3,NEW,C,,,3,1,0.20088,0,105,105,105,1,,
,,,,,,,,,,,,,1,60244fd7a4f7f31189dd2513,001,2021-03-03_01h23.53.904,GuessTheSound,2020.2.10,Win32,60,,,,,,,,,,,,,,,Initial/Repeat/Cup.wav,1,OLD,C,,,2,0,0.20242,0,106,106,106,1,,
,,,,,,,,,,,,,2,60244fd7a4f7f31189dd2513,001,2021-03-03_01h23.53.904,GuessTheSound,2020.2.10,Win32,60,,,,,,,,,,,,,,,Baby_F.wav,3,NEW,C,,,3,1,0.224095,0,107,107,107,1,,
,,,,,,,,,,,,,1,60244fd7a4f7f31189dd2513,001,2021-03-03_01h23.53.904,GuessTheSound,2020.2.10,Win32,60,,,,,,,,,,,,,,,Initial/NoRepeat/Droplet_B.wav,1,OLD,C,,,1,1,0.067285,0,108,108,108,1,,
,,,,,,,,,,,,,2,60244fd7a4f7f31189dd2513,001,2021-03-03_01h23.53.904,GuessTheSound,2020.2.10,Win32,60,,,,,,,,,,,,,,,Test/Foils/DialTone.wav,3,NEW,C,,,3,1,0.122895,0,109,109,109,1,,
,,,,,,,,,,,,,2,60244fd7a4f7f31189dd2513,001,2021-03-03_01h23.53.904,GuessTheSound,2020.2.10,Win32,60,,,,,,,,,,,,,,,Clap_C.wav,2,SIMILAR,C,,,2,1,0.20539,0,110,110,110,1,,
,,,,,,,,,,,,,2,60244fd7a4f7f31189dd2513,001,2021-03-03_01h23.53.904,GuessTheSound,2020.2.10,Win32,60,,,,,,,,,,,,,,,Test/Foils/Heartbeat.wav,3,NEW,C,,,3,1,0.2102,0,111,111,111,1,,
,,,,,,,,,,,,,1,60244fd7a4f7f31189dd2513,001,2021-03-03_01h23.53.904,GuessTheSound,2020.2.10,Win32,60,,,,,,,,,,,,,,,Test/Lures/Guitar_B.wav,1,OLD,C,,,1,1,0.45979,0,112,112,112,1,,
,,,,,,,,,,,,,2,60244fd7a4f7f31189dd2513,001,2021-03-03_01h23.53.904,GuessTheSound,2020.2.10,Win32,60,,,,,,,,,,,,,,,Test/Foils/Typing.wav,3,NEW,C,,,3,1,0.0965,0,113,113,113,1,,
,,,,,,,,,,,,,1,60244fd7a4f7f31189dd2513,001,2021-03-03_01h23.53.904,GuessTheSound,2020.2.10,Win32,60,,,,,,,,,,,,,,,Initial/NoRepeat/Mosquito_B.wav,1,OLD,C,,,1,1,0.2186,0,114,114,114,1,,
,,,,,,,,,,,,,2,60244fd7a4f7f31189dd2513,001,2021-03-03_01h23.53.904,GuessTheSound,2020.2.10,Win32,60,,,,,,,,,,,,,,,Initial/Repeat/Airplane_B.wav,3,NEW,C,,,2,0,0.33707,0,115,115,115,1,,
,,,,,,,,,,,,,1,60244fd7a4f7f31189dd2513,001,2021-03-03_01h23.53.904,GuessTheSound,2020.2.10,Win32,60,,,,,,,,,,,,,,,Initial/Repeat/ManWhistle.wav,1,OLD,C,,,1,1,0.152215,0,116,116,116,1,,
,,,,,,,,,,,,,2,60244fd7a4f7f31189dd2513,001,2021-03-03_01h23.53.904,GuessTheSound,2020.2.10,Win32,60,,,,,,,,,,,,,,,Test/Foils/Steam.wav,3,NEW,C,,,2,0,0.683165,0,117,117,117,1,,
,,,,,,,,,,,,,2,60244fd7a4f7f31189dd2513,001,2021-03-03_01h23.53.904,GuessTheSound,2020.2.10,Win32,60,,,,,,,,,,,,,,,Baby_E.wav,2,SIMILAR,C,,,2,1,0.03369,0,118,118,118,1,,
,,,,,,,,,,,,,1,60244fd7a4f7f31189dd2513,001,2021-03-03_01h23.53.904,GuessTheSound,2020.2.10,Win32,60,,,,,,,,,,,,,,,Initial/Repeat/Bagpipe.wav,1,OLD,C,,,1,1,0.074615,0,119,119,119,1,,
,,,,,,,,,,,,,2,60244fd7a4f7f31189dd2513,001,2021-03-03_01h23.53.904,GuessTheSound,2020.2.10,Win32,60,,,,,,,,,,,,,,,Cough_H.wav,2,SIMILAR,C,,,2,1,0.2835,0,120,120,120,1,,
,,,,,,,,,,,,,1,60244fd7a4f7f31189dd2513,001,2021-03-03_01h23.53.904,GuessTheSound,2020.2.10,Win32,60,,,,,,,,,,,,,,,Initial/Repeat/Airplane_B.wav,1,OLD,C,,,1,1,0.050125,0,121,121,121,1,,
,,,,,,,,,,,,,1,60244fd7a4f7f31189dd2513,001,2021-03-03_01h23.53.904,GuessTheSound,2020.2.10,Win32,60,,,,,,,,,,,,,,,Test/Foils/DialTone.wav,1,OLD,C,,,1,1,0.23741,0,122,122,122,1,,
,,,,,,,,,,,,,1,60244fd7a4f7f31189dd2513,001,2021-03-03_01h23.53.904,GuessTheSound,2020.2.10,Win32,60,,,,,,,,,,,,,,,Initial/NoRepeat/Thunder_A.wav,1,OLD,C,,,1,1,0.00133,0,123,123,123,1,,
,,,,,,,,,,,,,1,60244fd7a4f7f31189dd2513,001,2021-03-03_01h23.53.904,GuessTheSound,2020.2.10,Win32,60,,,,,,,,,,,,,,,Test/Foils/Typing.wav,1,OLD,C,,,1,1,0.1789,0,124,124,124,1,,
,,,,,,,,,,,,,2,60244fd7a4f7f31189dd2513,001,2021-03-03_01h23.53.904,GuessTheSound,2020.2.10,Win32,60,,,,,,,,,,,,,,,Snore_E.wav,2,SIMILAR,C,,,2,1,0.368655,0,125,125,125,1,,
,,,,,,,,,,,,,1,60244fd7a4f7f31189dd2513,001,2021-03-03_01h23.53.904,GuessTheSound,2020.2.10,Win32,60,,,,,,,,,,,,,,,Test/Foils/Heartbeat.wav,1,OLD,C,,,2,0,0.29249,0,126,126,126,1,,
,,,,,,,,,,,,,1,60244fd7a4f7f31189dd2513,001,2021-03-03_01h23.53.904,GuessTheSound,2020.2.10,Win32,60,,,,,,,,,,,,,,,Test/Foils/Steam.wav,1,OLD,C,,,1,1,0.189225,0,127,127,127,1,,
,,,,,,,,,,,,,,60244fd7a4f7f31189dd2513,001,2021-03-03_01h23.53.904,GuessTheSound,2020.2.10,Win32,60,,,,,,,,,,,,,,,,,,,,,,,,,,,,,space,11.077345
