VolumeContinueKey.keys,VolumeContinueKey.rt,HeadphoneContinueKey.keys,HeadphoneContinueKey.rt,CheckResp.keys,CheckResp.corr,CheckResp.rt,trials_2.thisRepN,trials_2.thisTrialN,trials_2.thisN,trials_2.thisIndex,trials_2.ran,File,Correct,participant,date,expName,psychopyVersion,OS,frameRate,key_resp_2.keys,key_resp_2.rt,key_resp_3.keys,key_resp_3.rt,WelcomeContinueKey2.keys,WelcomeContinueKey2.rt,Practice_resp.keys,Practice_resp.corr,Practice_resp.rt,PracticeLoop.thisRepN,PracticeLoop.thisTrialN,PracticeLoop.thisN,PracticeLoop.thisIndex,PracticeLoop.ran,SoundFile,SoundCorrect,Correct2,SoundType,Trial,StartTast.keys,StartTast.rt,key_resp.keys,key_resp.corr,key_resp.rt,trials.thisRepN,trials.thisTrialN,trials.thisN,trials.thisIndex,trials.ran,ExitKey.keys,ExitKey.rt
space,0.160285,space,0.151455,2,1,1.04244,0,0,0,3,1,Headphone/t2_2.wav,2,603f8db40379eb034184c597,2021-03-21_17h42.46.203,GuessTheSound,2020.2.10,Linux x86_64,60,,,,,,,,,,,,,,,,,,,,,,,,,,,,,,,
,,,,3,1,0.16454,0,1,1,5,1,Headphone/t3_2.wav,3,603f8db40379eb034184c597,2021-03-21_17h42.46.203,GuessTheSound,2020.2.10,Linux x86_64,60,,,,,,,,,,,,,,,,,,,,,,,,,,,,,,,
,,,,1,1,0.150835,0,2,2,1,1,Headphone/t1_2.wav,1,603f8db40379eb034184c597,2021-03-21_17h42.46.203,GuessTheSound,2020.2.10,Linux x86_64,60,,,,,,,,,,,,,,,,,,,,,,,,,,,,,,,
,,,,1,0,0.13517,0,3,3,4,1,Headphone/t3_1.wav,3,603f8db40379eb034184c597,2021-03-21_17h42.46.203,GuessTheSound,2020.2.10,Linux x86_64,60,,,,,,,,,,,,,,,,,,,,,,,,,,,,,,,
,,,,2,1,0.140875,0,4,4,2,1,Headphone/t2_1.wav,2,603f8db40379eb034184c597,2021-03-21_17h42.46.203,GuessTheSound,2020.2.10,Linux x86_64,60,,,,,,,,,,,,,,,,,,,,,,,,,,,,,,,
,,,,1,1,0.036445,0,5,5,0,1,Headphone/t1_1.wav,1,603f8db40379eb034184c597,2021-03-21_17h42.46.203,GuessTheSound,2020.2.10,Linux x86_64,60,,,,,,,,,,,,,,,,,,,,,,,,,,,,,,,
,,,,,,,,,,,,,,603f8db40379eb034184c597,2021-03-21_17h42.46.203,GuessTheSound,2020.2.10,Linux x86_64,60,space,1.271675,space,0.33274,space,0.23267,2,1,1.50297,0,0,0,0,1,Practice/Seagull_A.wav,2,3,NEW,Practice,,,,,,,,,,,,
,,,,,,,,,,,,,,603f8db40379eb034184c597,2021-03-21_17h42.46.203,GuessTheSound,2020.2.10,Linux x86_64,60,,,,,,,2,1,0.100165,0,1,1,1,1,Practice/Skid_B.wav,2,3,NEW,Practice,,,,,,,,,,,,
,,,,,,,,,,,,,,603f8db40379eb034184c597,2021-03-21_17h42.46.203,GuessTheSound,2020.2.10,Linux x86_64,60,,,,,,,1,1,0.339865,0,2,2,2,1,Practice/Seagull_A.wav,1,1,OLD,Practice,,,,,,,,,,,,
,,,,,,,,,,,,,,603f8db40379eb034184c597,2021-03-21_17h42.46.203,GuessTheSound,2020.2.10,Linux x86_64,60,,,,,,,2,1,0.152045,0,3,3,3,1,Practice/Gargle_A.wav,2,3,NEW,Practice,,,,,,,,,,,,
,,,,,,,,,,,,,,603f8db40379eb034184c597,2021-03-21_17h42.46.203,GuessTheSound,2020.2.10,Linux x86_64,60,,,,,,,2,1,0.163325,0,4,4,4,1,Practice/Gargle_B.wav,2,2,SIMILAR,Practice,,,,,,,,,,,,
,,,,,,,,,,,,,,603f8db40379eb034184c597,2021-03-21_17h42.46.203,GuessTheSound,2020.2.10,Linux x86_64,60,,,,,,,,,,,,,,,SoundMST/ManWhistle.wav,2,3,NEW,B,space,0.874435,2,1,0.004285,0,0,0,0,1,,
,,,,,,,,,,,,,,603f8db40379eb034184c597,2021-03-21_17h42.46.203,GuessTheSound,2020.2.10,Linux x86_64,60,,,,,,,,,,,,,,,SoundMST/Siren_E.wav,2,3,NEW,B,,,2,1,0.1511,0,1,1,1,1,,
,,,,,,,,,,,,,,603f8db40379eb034184c597,2021-03-21_17h42.46.203,GuessTheSound,2020.2.10,Linux x86_64,60,,,,,,,,,,,,,,,SoundMST/Footsteps_C.wav,2,3,NEW,B,,,2,1,0.40239,0,2,2,2,1,,
,,,,,,,,,,,,,,603f8db40379eb034184c597,2021-03-21_17h42.46.203,GuessTheSound,2020.2.10,Linux x86_64,60,,,,,,,,,,,,,,,SoundMST/Chicken_A.wav,2,3,NEW,B,,,2,1,0.374765,0,3,3,3,1,,
,,,,,,,,,,,,,,603f8db40379eb034184c597,2021-03-21_17h42.46.203,GuessTheSound,2020.2.10,Linux x86_64,60,,,,,,,,,,,,,,,SoundMST/Phone_D.wav,2,3,NEW,B,,,2,1,0.33048,0,4,4,4,1,,
,,,,,,,,,,,,,,603f8db40379eb034184c597,2021-03-21_17h42.46.203,GuessTheSound,2020.2.10,Linux x86_64,60,,,,,,,,,,,,,,,SoundMST/Cup.wav,2,3,NEW,B,,,1,0,0.426325,0,5,5,5,1,,
,,,,,,,,,,,,,,603f8db40379eb034184c597,2021-03-21_17h42.46.203,GuessTheSound,2020.2.10,Linux x86_64,60,,,,,,,,,,,,,,,SoundMST/Bowlingpins.wav,2,3,NEW,B,,,2,1,0.25654,0,6,6,6,1,,
,,,,,,,,,,,,,,603f8db40379eb034184c597,2021-03-21_17h42.46.203,GuessTheSound,2020.2.10,Linux x86_64,60,,,,,,,,,,,,,,,SoundMST/Bird_C.wav,2,3,NEW,B,,,2,1,0.314615,0,7,7,7,1,,
,,,,,,,,,,,,,,603f8db40379eb034184c597,2021-03-21_17h42.46.203,GuessTheSound,2020.2.10,Linux x86_64,60,,,,,,,,,,,,,,,SoundMST/HairDryer_A.wav,2,3,NEW,B,,,2,1,0.24901,0,8,8,8,1,,
,,,,,,,,,,,,,,603f8db40379eb034184c597,2021-03-21_17h42.46.203,GuessTheSound,2020.2.10,Linux x86_64,60,,,,,,,,,,,,,,,SoundMST/Faucet_A.wav,2,3,NEW,B,,,2,1,1.152635,0,9,9,9,1,,
,,,,,,,,,,,,,,603f8db40379eb034184c597,2021-03-21_17h42.46.203,GuessTheSound,2020.2.10,Linux x86_64,60,,,,,,,,,,,,,,,SoundMST/Siren_A.wav,2,2,SIMILAR,B,,,1,0,0.306065,0,10,10,10,1,,
,,,,,,,,,,,,,,603f8db40379eb034184c597,2021-03-21_17h42.46.203,GuessTheSound,2020.2.10,Linux x86_64,60,,,,,,,,,,,,,,,SoundMST/Laugh_A.wav,2,3,NEW,B,,,2,1,2.200725,0,11,11,11,1,,
,,,,,,,,,,,,,,603f8db40379eb034184c597,2021-03-21_17h42.46.203,GuessTheSound,2020.2.10,Linux x86_64,60,,,,,,,,,,,,,,,SoundMST/ManWhistle.wav,1,1,OLD,B,,,2,0,1.112345,0,12,12,12,1,,
,,,,,,,,,,,,,,603f8db40379eb034184c597,2021-03-21_17h42.46.203,GuessTheSound,2020.2.10,Linux x86_64,60,,,,,,,,,,,,,,,SoundMST/Cow.wav,2,3,NEW,B,,,1,0,1.238415,0,13,13,13,1,,
,,,,,,,,,,,,,,603f8db40379eb034184c597,2021-03-21_17h42.46.203,GuessTheSound,2020.2.10,Linux x86_64,60,,,,,,,,,,,,,,,SoundMST/Cough_C.wav,2,3,NEW,B,,,2,1,0.67323,0,14,14,14,1,,
,,,,,,,,,,,,,,603f8db40379eb034184c597,2021-03-21_17h42.46.203,GuessTheSound,2020.2.10,Linux x86_64,60,,,,,,,,,,,,,,,SoundMST/Phone_E.wav,2,2,SIMILAR,B,,,2,1,1.10093,0,15,15,15,1,,
,,,,,,,,,,,,,,603f8db40379eb034184c597,2021-03-21_17h42.46.203,GuessTheSound,2020.2.10,Linux x86_64,60,,,,,,,,,,,,,,,SoundMST/Chime_B.wav,2,3,NEW,B,,,2,1,3.138405,0,16,16,16,1,,
,,,,,,,,,,,,,,603f8db40379eb034184c597,2021-03-21_17h42.46.203,GuessTheSound,2020.2.10,Linux x86_64,60,,,,,,,,,,,,,,,SoundMST/Footsteps_F.wav,2,2,SIMILAR,B,,,2,1,0.632415,0,17,17,17,1,,
,,,,,,,,,,,,,,603f8db40379eb034184c597,2021-03-21_17h42.46.203,GuessTheSound,2020.2.10,Linux x86_64,60,,,,,,,,,,,,,,,SoundMST/Toilet_B.wav,2,3,NEW,B,,,2,1,0.00186,0,18,18,18,1,,
,,,,,,,,,,,,,,603f8db40379eb034184c597,2021-03-21_17h42.46.203,GuessTheSound,2020.2.10,Linux x86_64,60,,,,,,,,,,,,,,,SoundMST/Piano_D.wav,2,3,NEW,B,,,2,1,0.37783,0,19,19,19,1,,
,,,,,,,,,,,,,,603f8db40379eb034184c597,2021-03-21_17h42.46.203,GuessTheSound,2020.2.10,Linux x86_64,60,,,,,,,,,,,,,,,SoundMST/Cup.wav,1,1,OLD,B,,,2,0,1.08851,0,20,20,20,1,,
,,,,,,,,,,,,,,603f8db40379eb034184c597,2021-03-21_17h42.46.203,GuessTheSound,2020.2.10,Linux x86_64,60,,,,,,,,,,,,,,,SoundMST/HairDryer_A.wav,1,1,OLD,B,,,2,0,0.617275,0,21,21,21,1,,
,,,,,,,,,,,,,,603f8db40379eb034184c597,2021-03-21_17h42.46.203,GuessTheSound,2020.2.10,Linux x86_64,60,,,,,,,,,,,,,,,SoundMST/Thunder_A.wav,2,3,NEW,B,,,1,0,0.05597,0,22,22,22,1,,
,,,,,,,,,,,,,,603f8db40379eb034184c597,2021-03-21_17h42.46.203,GuessTheSound,2020.2.10,Linux x86_64,60,,,,,,,,,,,,,,,SoundMST/Chicken_A.wav,1,1,OLD,B,,,2,0,1.51931,0,23,23,23,1,,
,,,,,,,,,,,,,,603f8db40379eb034184c597,2021-03-21_17h42.46.203,GuessTheSound,2020.2.10,Linux x86_64,60,,,,,,,,,,,,,,,SoundMST/Whistle_B.wav,2,3,NEW,B,,,2,1,0.32216,0,24,24,24,1,,
,,,,,,,,,,,,,,603f8db40379eb034184c597,2021-03-21_17h42.46.203,GuessTheSound,2020.2.10,Linux x86_64,60,,,,,,,,,,,,,,,SoundMST/Bird_A.wav,2,2,SIMILAR,B,,,2,1,0.405335,0,25,25,25,1,,
,,,,,,,,,,,,,,603f8db40379eb034184c597,2021-03-21_17h42.46.203,GuessTheSound,2020.2.10,Linux x86_64,60,,,,,,,,,,,,,,,SoundMST/Dog_H.wav,2,3,NEW,B,,,1,0,0.503985,0,26,26,26,1,,
,,,,,,,,,,,,,,603f8db40379eb034184c597,2021-03-21_17h42.46.203,GuessTheSound,2020.2.10,Linux x86_64,60,,,,,,,,,,,,,,,SoundMST/Bowlingpins.wav,1,1,OLD,B,,,1,1,0.57365,0,27,27,27,1,,
,,,,,,,,,,,,,,603f8db40379eb034184c597,2021-03-21_17h42.46.203,GuessTheSound,2020.2.10,Linux x86_64,60,,,,,,,,,,,,,,,SoundMST/Fireworks.wav,2,3,NEW,B,,,2,1,0.35408,0,28,28,28,1,,
,,,,,,,,,,,,,,603f8db40379eb034184c597,2021-03-21_17h42.46.203,GuessTheSound,2020.2.10,Linux x86_64,60,,,,,,,,,,,,,,,SoundMST/Cow.wav,1,1,OLD,B,,,2,0,0.47072,0,29,29,29,1,,
,,,,,,,,,,,,,,603f8db40379eb034184c597,2021-03-21_17h42.46.203,GuessTheSound,2020.2.10,Linux x86_64,60,,,,,,,,,,,,,,,SoundMST/Snore_C.wav,2,3,NEW,B,,,2,1,0.37457,0,30,30,30,1,,
,,,,,,,,,,,,,,603f8db40379eb034184c597,2021-03-21_17h42.46.203,GuessTheSound,2020.2.10,Linux x86_64,60,,,,,,,,,,,,,,,SoundMST/Faucet_C.wav,2,2,SIMILAR,B,,,2,1,0.54728,0,31,31,31,1,,
,,,,,,,,,,,,,,603f8db40379eb034184c597,2021-03-21_17h42.46.203,GuessTheSound,2020.2.10,Linux x86_64,60,,,,,,,,,,,,,,,SoundMST/Chime_A.wav,2,2,SIMILAR,B,,,1,0,0.52028,0,32,32,32,1,,
,,,,,,,,,,,,,,603f8db40379eb034184c597,2021-03-21_17h42.46.203,GuessTheSound,2020.2.10,Linux x86_64,60,,,,,,,,,,,,,,,SoundMST/Cough_E.wav,2,2,SIMILAR,B,,,2,1,0.515615,0,33,33,33,1,,
,,,,,,,,,,,,,,603f8db40379eb034184c597,2021-03-21_17h42.46.203,GuessTheSound,2020.2.10,Linux x86_64,60,,,,,,,,,,,,,,,SoundMST/Heartbeat.wav,2,3,NEW,B,,,2,1,0.543705,0,34,34,34,1,,
,,,,,,,,,,,,,,603f8db40379eb034184c597,2021-03-21_17h42.46.203,GuessTheSound,2020.2.10,Linux x86_64,60,,,,,,,,,,,,,,,SoundMST/Laugh_D.wav,2,2,SIMILAR,B,,,2,1,0.842835,0,35,35,35,1,,
,,,,,,,,,,,,,,603f8db40379eb034184c597,2021-03-21_17h42.46.203,GuessTheSound,2020.2.10,Linux x86_64,60,,,,,,,,,,,,,,,SoundMST/Cello.wav,2,3,NEW,B,,,1,0,0.451045,0,36,36,36,1,,
,,,,,,,,,,,,,,603f8db40379eb034184c597,2021-03-21_17h42.46.203,GuessTheSound,2020.2.10,Linux x86_64,60,,,,,,,,,,,,,,,SoundMST/Piano_D.wav,1,1,OLD,B,,,1,1,0.65353,0,37,37,37,1,,
,,,,,,,,,,,,,,603f8db40379eb034184c597,2021-03-21_17h42.46.203,GuessTheSound,2020.2.10,Linux x86_64,60,,,,,,,,,,,,,,,SoundMST/Clap_B.wav,2,3,NEW,B,,,1,0,0.62171,0,38,38,38,1,,
,,,,,,,,,,,,,,603f8db40379eb034184c597,2021-03-21_17h42.46.203,GuessTheSound,2020.2.10,Linux x86_64,60,,,,,,,,,,,,,,,SoundMST/Bagpipe.wav,2,3,NEW,B,,,2,1,0.23784,0,39,39,39,1,,
,,,,,,,,,,,,,,603f8db40379eb034184c597,2021-03-21_17h42.46.203,GuessTheSound,2020.2.10,Linux x86_64,60,,,,,,,,,,,,,,,SoundMST/Growl_G.wav,2,3,NEW,B,,,2,1,1.123385,0,40,40,40,1,,
,,,,,,,,,,,,,,603f8db40379eb034184c597,2021-03-21_17h42.46.203,GuessTheSound,2020.2.10,Linux x86_64,60,,,,,,,,,,,,,,,SoundMST/Airplane_B.wav,2,3,NEW,B,,,2,1,3.388155,0,41,41,41,1,,
,,,,,,,,,,,,,,603f8db40379eb034184c597,2021-03-21_17h42.46.203,GuessTheSound,2020.2.10,Linux x86_64,60,,,,,,,,,,,,,,,SoundMST/Toilet_B.wav,1,1,OLD,B,,,1,1,0.019705,0,42,42,42,1,,
,,,,,,,,,,,,,,603f8db40379eb034184c597,2021-03-21_17h42.46.203,GuessTheSound,2020.2.10,Linux x86_64,60,,,,,,,,,,,,,,,SoundMST/Hammer_A.wav,2,3,NEW,B,,,2,1,0.939985,0,43,43,43,1,,
,,,,,,,,,,,,,,603f8db40379eb034184c597,2021-03-21_17h42.46.203,GuessTheSound,2020.2.10,Linux x86_64,60,,,,,,,,,,,,,,,SoundMST/Goat_B.wav,2,3,NEW,B,,,2,1,0.151865,0,44,44,44,1,,
,,,,,,,,,,,,,,603f8db40379eb034184c597,2021-03-21_17h42.46.203,GuessTheSound,2020.2.10,Linux x86_64,60,,,,,,,,,,,,,,,SoundMST/Coin_D.wav,2,3,NEW,B,,,1,0,0.174715,0,45,45,45,1,,
,,,,,,,,,,,,,,603f8db40379eb034184c597,2021-03-21_17h42.46.203,GuessTheSound,2020.2.10,Linux x86_64,60,,,,,,,,,,,,,,,SoundMST/Fireworks.wav,1,1,OLD,B,,,1,1,0.04662,0,46,46,46,1,,
,,,,,,,,,,,,,,603f8db40379eb034184c597,2021-03-21_17h42.46.203,GuessTheSound,2020.2.10,Linux x86_64,60,,,,,,,,,,,,,,,SoundMST/Donkey.wav,2,3,NEW,B,,,2,1,0.191385,0,47,47,47,1,,
,,,,,,,,,,,,,,603f8db40379eb034184c597,2021-03-21_17h42.46.203,GuessTheSound,2020.2.10,Linux x86_64,60,,,,,,,,,,,,,,,SoundMST/Howl.wav,2,3,NEW,B,,,1,0,0.139585,0,48,48,48,1,,
,,,,,,,,,,,,,,603f8db40379eb034184c597,2021-03-21_17h42.46.203,GuessTheSound,2020.2.10,Linux x86_64,60,,,,,,,,,,,,,,,SoundMST/Thunder_A.wav,1,1,OLD,B,,,2,0,0.15658,0,49,49,49,1,,
,,,,,,,,,,,,,,603f8db40379eb034184c597,2021-03-21_17h42.46.203,GuessTheSound,2020.2.10,Linux x86_64,60,,,,,,,,,,,,,,,SoundMST/Whistle_C.wav,2,2,SIMILAR,B,,,1,0,0.022155,0,50,50,50,1,,
,,,,,,,,,,,,,,603f8db40379eb034184c597,2021-03-21_17h42.46.203,GuessTheSound,2020.2.10,Linux x86_64,60,,,,,,,,,,,,,,,SoundMST/Helicopter_A.wav,2,3,NEW,B,,,2,1,0.10164,0,51,51,51,1,,
,,,,,,,,,,,,,,603f8db40379eb034184c597,2021-03-21_17h42.46.203,GuessTheSound,2020.2.10,Linux x86_64,60,,,,,,,,,,,,,,,SoundMST/Dog_F.wav,2,2,SIMILAR,B,,,2,1,0.138405,0,52,52,52,1,,
,,,,,,,,,,,,,,603f8db40379eb034184c597,2021-03-21_17h42.46.203,GuessTheSound,2020.2.10,Linux x86_64,60,,,,,,,,,,,,,,,SoundMST/Horse.wav,2,3,NEW,B,,,1,0,0.021325,0,53,53,53,1,,
,,,,,,,,,,,,,,603f8db40379eb034184c597,2021-03-21_17h42.46.203,GuessTheSound,2020.2.10,Linux x86_64,60,,,,,,,,,,,,,,,SoundMST/Chomp_A.wav,2,3,NEW,B,,,2,1,0.156725,0,54,54,54,1,,
,,,,,,,,,,,,,,603f8db40379eb034184c597,2021-03-21_17h42.46.203,GuessTheSound,2020.2.10,Linux x86_64,60,,,,,,,,,,,,,,,SoundMST/Heartbeat.wav,1,1,OLD,B,,,1,1,0.172695,0,55,55,55,1,,
,,,,,,,,,,,,,,603f8db40379eb034184c597,2021-03-21_17h42.46.203,GuessTheSound,2020.2.10,Linux x86_64,60,,,,,,,,,,,,,,,SoundMST/Clap_C.wav,2,2,SIMILAR,B,,,1,0,0.111755,0,56,56,56,1,,
,,,,,,,,,,,,,,603f8db40379eb034184c597,2021-03-21_17h42.46.203,GuessTheSound,2020.2.10,Linux x86_64,60,,,,,,,,,,,,,,,SoundMST/Crow_B.wav,2,3,NEW,B,,,1,0,0.08726,0,57,57,57,1,,
,,,,,,,,,,,,,,603f8db40379eb034184c597,2021-03-21_17h42.46.203,GuessTheSound,2020.2.10,Linux x86_64,60,,,,,,,,,,,,,,,SoundMST/Growl_H.wav,2,2,SIMILAR,B,,,2,1,0.02675,0,58,58,58,1,,
,,,,,,,,,,,,,,603f8db40379eb034184c597,2021-03-21_17h42.46.203,GuessTheSound,2020.2.10,Linux x86_64,60,,,,,,,,,,,,,,,SoundMST/Printer.wav,2,3,NEW,B,,,1,0,0.1626,0,59,59,59,1,,
,,,,,,,,,,,,,,603f8db40379eb034184c597,2021-03-21_17h42.46.203,GuessTheSound,2020.2.10,Linux x86_64,60,,,,,,,,,,,,,,,SoundMST/Cello.wav,1,1,OLD,B,,,1,1,0.22507,0,60,60,60,1,,
,,,,,,,,,,,,,,603f8db40379eb034184c597,2021-03-21_17h42.46.203,GuessTheSound,2020.2.10,Linux x86_64,60,,,,,,,,,,,,,,,SoundMST/Snore_E.wav,2,2,SIMILAR,B,,,2,1,0.02399,0,61,61,61,1,,
,,,,,,,,,,,,,,603f8db40379eb034184c597,2021-03-21_17h42.46.203,GuessTheSound,2020.2.10,Linux x86_64,60,,,,,,,,,,,,,,,SoundMST/CarStart_E.wav,2,3,NEW,B,,,2,1,0.09052,0,62,62,62,1,,
,,,,,,,,,,,,,,603f8db40379eb034184c597,2021-03-21_17h42.46.203,GuessTheSound,2020.2.10,Linux x86_64,60,,,,,,,,,,,,,,,SoundMST/Goat_C.wav,2,2,SIMILAR,B,,,1,0,0.021765,0,63,63,63,1,,
,,,,,,,,,,,,,,603f8db40379eb034184c597,2021-03-21_17h42.46.203,GuessTheSound,2020.2.10,Linux x86_64,60,,,,,,,,,,,,,,,SoundMST/Coin_E.wav,2,2,SIMILAR,B,,,1,0,0.329455,0,64,64,64,1,,
,,,,,,,,,,,,,,603f8db40379eb034184c597,2021-03-21_17h42.46.203,GuessTheSound,2020.2.10,Linux x86_64,60,,,,,,,,,,,,,,,SoundMST/Howl.wav,1,1,OLD,B,,,2,0,0.0698,0,65,65,65,1,,
,,,,,,,,,,,,,,603f8db40379eb034184c597,2021-03-21_17h42.46.203,GuessTheSound,2020.2.10,Linux x86_64,60,,,,,,,,,,,,,,,SoundMST/Airplane_B.wav,1,1,OLD,B,,,2,0,0.136775,0,66,66,66,1,,
,,,,,,,,,,,,,,603f8db40379eb034184c597,2021-03-21_17h42.46.203,GuessTheSound,2020.2.10,Linux x86_64,60,,,,,,,,,,,,,,,SoundMST/Mosquito_B.wav,1,1,OLD,B,,,2,0,0.007535,0,67,67,67,1,,
,,,,,,,,,,,,,,603f8db40379eb034184c597,2021-03-21_17h42.46.203,GuessTheSound,2020.2.10,Linux x86_64,60,,,,,,,,,,,,,,,SoundMST/Droplet_B.wav,2,3,NEW,B,,,2,1,0.24353,0,68,68,68,1,,
,,,,,,,,,,,,,,603f8db40379eb034184c597,2021-03-21_17h42.46.203,GuessTheSound,2020.2.10,Linux x86_64,60,,,,,,,,,,,,,,,SoundMST/Donkey.wav,1,1,OLD,B,,,2,0,0.188265,0,69,69,69,1,,
,,,,,,,,,,,,,,603f8db40379eb034184c597,2021-03-21_17h42.46.203,GuessTheSound,2020.2.10,Linux x86_64,60,,,,,,,,,,,,,,,SoundMST/Guitar_B.wav,2,3,NEW,B,,,2,1,0.2222,0,70,70,70,1,,
,,,,,,,,,,,,,,603f8db40379eb034184c597,2021-03-21_17h42.46.203,GuessTheSound,2020.2.10,Linux x86_64,60,,,,,,,,,,,,,,,SoundMST/Bagpipe.wav,1,1,OLD,B,,,1,1,0.173775,0,71,71,71,1,,
,,,,,,,,,,,,,,603f8db40379eb034184c597,2021-03-21_17h42.46.203,GuessTheSound,2020.2.10,Linux x86_64,60,,,,,,,,,,,,,,,SoundMST/Hammer_A.wav,2,3,NEW,B,,,1,0,0.072145,0,72,72,72,1,,
,,,,,,,,,,,,,,603f8db40379eb034184c597,2021-03-21_17h42.46.203,GuessTheSound,2020.2.10,Linux x86_64,60,,,,,,,,,,,,,,,SoundMST/Helicopter_A.wav,1,1,OLD,B,,,2,0,0.035985,0,73,73,73,1,,
,,,,,,,,,,,,,,603f8db40379eb034184c597,2021-03-21_17h42.46.203,GuessTheSound,2020.2.10,Linux x86_64,60,,,,,,,,,,,,,,,SoundMST/Camera.wav,2,3,NEW,B,,,1,0,0.176455,0,74,74,74,1,,
,,,,,,,,,,,,,,603f8db40379eb034184c597,2021-03-21_17h42.46.203,GuessTheSound,2020.2.10,Linux x86_64,60,,,,,,,,,,,,,,,SoundMST/Steam.wav,2,3,NEW,B,,,2,1,0.35244,0,75,75,75,1,,
,,,,,,,,,,,,,,603f8db40379eb034184c597,2021-03-21_17h42.46.203,GuessTheSound,2020.2.10,Linux x86_64,60,,,,,,,,,,,,,,,SoundMST/Horse.wav,1,1,OLD,B,,,2,0,0.00224,0,76,76,76,1,,
,,,,,,,,,,,,,,603f8db40379eb034184c597,2021-03-21_17h42.46.203,GuessTheSound,2020.2.10,Linux x86_64,60,,,,,,,,,,,,,,,SoundMST/Elephant_C.wav,2,3,NEW,B,,,1,0,0.10215,0,77,77,77,1,,
,,,,,,,,,,,,,,603f8db40379eb034184c597,2021-03-21_17h42.46.203,GuessTheSound,2020.2.10,Linux x86_64,60,,,,,,,,,,,,,,,SoundMST/Printer.wav,1,1,OLD,B,,,1,1,0.04077,0,78,78,78,1,,
,,,,,,,,,,,,,,603f8db40379eb034184c597,2021-03-21_17h42.46.203,GuessTheSound,2020.2.10,Linux x86_64,60,,,,,,,,,,,,,,,SoundMST/Crow_A.wav,2,2,SIMILAR,B,,,2,1,0.17202,0,79,79,79,1,,
,,,,,,,,,,,,,,603f8db40379eb034184c597,2021-03-21_17h42.46.203,GuessTheSound,2020.2.10,Linux x86_64,60,,,,,,,,,,,,,,,SoundMST/Bubbles_A.wav,2,3,NEW,B,,,2,1,0.037335,0,80,80,80,1,,
,,,,,,,,,,,,,,603f8db40379eb034184c597,2021-03-21_17h42.46.203,GuessTheSound,2020.2.10,Linux x86_64,60,,,,,,,,,,,,,,,SoundMST/Chomp_C.wav,2,2,SIMILAR,B,,,1,0,0.078425,0,81,81,81,1,,
,,,,,,,,,,,,,,603f8db40379eb034184c597,2021-03-21_17h42.46.203,GuessTheSound,2020.2.10,Linux x86_64,60,,,,,,,,,,,,,,,SoundMST/Airhorn.wav,2,3,NEW,B,,,2,1,0.052695,0,82,82,82,1,,
,,,,,,,,,,,,,,603f8db40379eb034184c597,2021-03-21_17h42.46.203,GuessTheSound,2020.2.10,Linux x86_64,60,,,,,,,,,,,,,,,SoundMST/Writing_A.wav,2,3,NEW,B,,,2,1,0.13057,0,83,83,83,1,,
,,,,,,,,,,,,,,603f8db40379eb034184c597,2021-03-21_17h42.46.203,GuessTheSound,2020.2.10,Linux x86_64,60,,,,,,,,,,,,,,,SoundMST/Cuckoo_A.wav,2,3,NEW,B,,,1,0,0.204475,0,84,84,84,1,,
,,,,,,,,,,,,,,603f8db40379eb034184c597,2021-03-21_17h42.46.203,GuessTheSound,2020.2.10,Linux x86_64,60,,,,,,,,,,,,,,,SoundMST/IceDrop.wav,2,3,NEW,B,,,1,0,0.10488,0,85,85,85,1,,
,,,,,,,,,,,,,,603f8db40379eb034184c597,2021-03-21_17h42.46.203,GuessTheSound,2020.2.10,Linux x86_64,60,,,,,,,,,,,,,,,SoundMST/CarStart_D.wav,2,2,SIMILAR,B,,,2,1,0.2355,0,86,86,86,1,,
,,,,,,,,,,,,,,603f8db40379eb034184c597,2021-03-21_17h42.46.203,GuessTheSound,2020.2.10,Linux x86_64,60,,,,,,,,,,,,,,,SoundMST/Baby_F.wav,2,3,NEW,B,,,2,1,0.204995,0,87,87,87,1,,
,,,,,,,,,,,,,,603f8db40379eb034184c597,2021-03-21_17h42.46.203,GuessTheSound,2020.2.10,Linux x86_64,60,,,,,,,,,,,,,,,SoundMST/Puff_A.wav,2,3,NEW,B,,,1,0,0.014925,0,88,88,88,1,,
,,,,,,,,,,,,,,603f8db40379eb034184c597,2021-03-21_17h42.46.203,GuessTheSound,2020.2.10,Linux x86_64,60,,,,,,,,,,,,,,,SoundMST/Droplet_B.wav,1,1,OLD,B,,,2,0,0.055875,0,89,89,89,1,,
,,,,,,,,,,,,,,603f8db40379eb034184c597,2021-03-21_17h42.46.203,GuessTheSound,2020.2.10,Linux x86_64,60,,,,,,,,,,,,,,,SoundMST/Guitar_B.wav,1,1,OLD,B,,,1,1,0.19857,0,90,90,90,1,,
,,,,,,,,,,,,,,603f8db40379eb034184c597,2021-03-21_17h42.46.203,GuessTheSound,2020.2.10,Linux x86_64,60,,,,,,,,,,,,,,,SoundMST/PaperRip.wav,2,3,NEW,B,,,1,0,0.20929,0,91,91,91,1,,
,,,,,,,,,,,,,,603f8db40379eb034184c597,2021-03-21_17h42.46.203,GuessTheSound,2020.2.10,Linux x86_64,60,,,,,,,,,,,,,,,SoundMST/Mosquito_B.wav,1,1,OLD,B,,,1,1,0.13909,0,92,92,92,1,,
,,,,,,,,,,,,,,603f8db40379eb034184c597,2021-03-21_17h42.46.203,GuessTheSound,2020.2.10,Linux x86_64,60,,,,,,,,,,,,,,,SoundMST/Trumpet_B.wav,2,3,NEW,B,,,1,0,0.2251,0,93,93,93,1,,
,,,,,,,,,,,,,,603f8db40379eb034184c597,2021-03-21_17h42.46.203,GuessTheSound,2020.2.10,Linux x86_64,60,,,,,,,,,,,,,,,SoundMST/Bullfrog.wav,2,3,NEW,B,,,2,1,0.024455,0,94,94,94,1,,
,,,,,,,,,,,,,,603f8db40379eb034184c597,2021-03-21_17h42.46.203,GuessTheSound,2020.2.10,Linux x86_64,60,,,,,,,,,,,,,,,SoundMST/Elephant_A.wav,2,2,SIMILAR,B,,,1,0,0.17726,0,95,95,95,1,,
,,,,,,,,,,,,,,603f8db40379eb034184c597,2021-03-21_17h42.46.203,GuessTheSound,2020.2.10,Linux x86_64,60,,,,,,,,,,,,,,,SoundMST/Sneeze_B.wav,2,3,NEW,B,,,1,0,0.24151,0,96,96,96,1,,
,,,,,,,,,,,,,,603f8db40379eb034184c597,2021-03-21_17h42.46.203,GuessTheSound,2020.2.10,Linux x86_64,60,,,,,,,,,,,,,,,SoundMST/Camera.wav,1,1,OLD,B,,,2,0,0.04243,0,97,97,97,1,,
,,,,,,,,,,,,,,603f8db40379eb034184c597,2021-03-21_17h42.46.203,GuessTheSound,2020.2.10,Linux x86_64,60,,,,,,,,,,,,,,,SoundMST/Cat_A.wav,2,3,NEW,B,,,2,1,0.001795,0,98,98,98,1,,
,,,,,,,,,,,,,,603f8db40379eb034184c597,2021-03-21_17h42.46.203,GuessTheSound,2020.2.10,Linux x86_64,60,,,,,,,,,,,,,,,SoundMST/Steam.wav,1,1,OLD,B,,,1,1,0.13551,0,99,99,99,1,,
,,,,,,,,,,,,,,603f8db40379eb034184c597,2021-03-21_17h42.46.203,GuessTheSound,2020.2.10,Linux x86_64,60,,,,,,,,,,,,,,,SoundMST/Writing_C.wav,2,2,SIMILAR,B,,,1,0,0.193505,0,100,100,100,1,,
,,,,,,,,,,,,,,603f8db40379eb034184c597,2021-03-21_17h42.46.203,GuessTheSound,2020.2.10,Linux x86_64,60,,,,,,,,,,,,,,,SoundMST/IceDrop.wav,1,1,OLD,B,,,2,0,0.020515,0,101,101,101,1,,
,,,,,,,,,,,,,,603f8db40379eb034184c597,2021-03-21_17h42.46.203,GuessTheSound,2020.2.10,Linux x86_64,60,,,,,,,,,,,,,,,SoundMST/Slurp.wav,2,3,NEW,B,,,2,1,0.32727,0,102,102,102,1,,
,,,,,,,,,,,,,,603f8db40379eb034184c597,2021-03-21_17h42.46.203,GuessTheSound,2020.2.10,Linux x86_64,60,,,,,,,,,,,,,,,SoundMST/Baby_E.wav,2,2,SIMILAR,B,,,1,0,0.08718,0,103,103,103,1,,
,,,,,,,,,,,,,,603f8db40379eb034184c597,2021-03-21_17h42.46.203,GuessTheSound,2020.2.10,Linux x86_64,60,,,,,,,,,,,,,,,SoundMST/DialTone.wav,2,3,NEW,B,,,1,0,0.156085,0,104,104,104,1,,
,,,,,,,,,,,,,,603f8db40379eb034184c597,2021-03-21_17h42.46.203,GuessTheSound,2020.2.10,Linux x86_64,60,,,,,,,,,,,,,,,SoundMST/Puff_A.wav,1,1,OLD,B,,,2,0,0.185525,0,105,105,105,1,,
,,,,,,,,,,,,,,603f8db40379eb034184c597,2021-03-21_17h42.46.203,GuessTheSound,2020.2.10,Linux x86_64,60,,,,,,,,,,,,,,,SoundMST/Buzz.wav,2,3,NEW,B,,,1,0,0.168215,0,106,106,106,1,,
,,,,,,,,,,,,,,603f8db40379eb034184c597,2021-03-21_17h42.46.203,GuessTheSound,2020.2.10,Linux x86_64,60,,,,,,,,,,,,,,,SoundMST/Airhorn.wav,1,1,OLD,B,,,1,1,0.003895,0,107,107,107,1,,
,,,,,,,,,,,,,,603f8db40379eb034184c597,2021-03-21_17h42.46.203,GuessTheSound,2020.2.10,Linux x86_64,60,,,,,,,,,,,,,,,SoundMST/Sleighbells_B.wav,2,3,NEW,B,,,2,1,0.23971,0,108,108,108,1,,
,,,,,,,,,,,,,,603f8db40379eb034184c597,2021-03-21_17h42.46.203,GuessTheSound,2020.2.10,Linux x86_64,60,,,,,,,,,,,,,,,SoundMST/Cuckoo_A.wav,1,1,OLD,B,,,2,0,0.12303,0,109,109,109,1,,
,,,,,,,,,,,,,,603f8db40379eb034184c597,2021-03-21_17h42.46.203,GuessTheSound,2020.2.10,Linux x86_64,60,,,,,,,,,,,,,,,SoundMST/Wind_B.wav,2,3,NEW,B,,,2,1,0.02367,0,110,110,110,1,,
,,,,,,,,,,,,,,603f8db40379eb034184c597,2021-03-21_17h42.46.203,GuessTheSound,2020.2.10,Linux x86_64,60,,,,,,,,,,,,,,,SoundMST/Typing.wav,2,3,NEW,B,,,2,1,0.15652,0,111,111,111,1,,
,,,,,,,,,,,,,,603f8db40379eb034184c597,2021-03-21_17h42.46.203,GuessTheSound,2020.2.10,Linux x86_64,60,,,,,,,,,,,,,,,SoundMST/Bubbles_B.wav,2,2,SIMILAR,B,,,2,1,0.17875,0,112,112,112,1,,
,,,,,,,,,,,,,,603f8db40379eb034184c597,2021-03-21_17h42.46.203,GuessTheSound,2020.2.10,Linux x86_64,60,,,,,,,,,,,,,,,SoundMST/Duck_A.wav,2,3,NEW,B,,,2,1,0.185195,0,113,113,113,1,,
,,,,,,,,,,,,,,603f8db40379eb034184c597,2021-03-21_17h42.46.203,GuessTheSound,2020.2.10,Linux x86_64,60,,,,,,,,,,,,,,,SoundMST/Trumpet_B.wav,1,1,OLD,B,,,2,0,0.069645,0,114,114,114,1,,
,,,,,,,,,,,,,,603f8db40379eb034184c597,2021-03-21_17h42.46.203,GuessTheSound,2020.2.10,Linux x86_64,60,,,,,,,,,,,,,,,SoundMST/PaperRip.wav,1,1,OLD,B,,,2,0,0.070475,0,115,115,115,1,,
,,,,,,,,,,,,,,603f8db40379eb034184c597,2021-03-21_17h42.46.203,GuessTheSound,2020.2.10,Linux x86_64,60,,,,,,,,,,,,,,,SoundMST/Sneeze_B.wav,1,1,OLD,B,,,2,0,0.124115,0,116,116,116,1,,
,,,,,,,,,,,,,,603f8db40379eb034184c597,2021-03-21_17h42.46.203,GuessTheSound,2020.2.10,Linux x86_64,60,,,,,,,,,,,,,,,SoundMST/Pour_B.wav,2,3,NEW,B,,,1,0,0.135635,0,117,117,117,1,,
,,,,,,,,,,,,,,603f8db40379eb034184c597,2021-03-21_17h42.46.203,GuessTheSound,2020.2.10,Linux x86_64,60,,,,,,,,,,,,,,,SoundMST/Cat_A.wav,1,1,OLD,B,,,2,0,0.25392,0,118,118,118,1,,
,,,,,,,,,,,,,,603f8db40379eb034184c597,2021-03-21_17h42.46.203,GuessTheSound,2020.2.10,Linux x86_64,60,,,,,,,,,,,,,,,SoundMST/Slurp.wav,1,1,OLD,B,,,2,0,0.05082,0,119,119,119,1,,
,,,,,,,,,,,,,,603f8db40379eb034184c597,2021-03-21_17h42.46.203,GuessTheSound,2020.2.10,Linux x86_64,60,,,,,,,,,,,,,,,SoundMST/Bullfrog.wav,1,1,OLD,B,,,1,1,0.304625,0,120,120,120,1,,
,,,,,,,,,,,,,,603f8db40379eb034184c597,2021-03-21_17h42.46.203,GuessTheSound,2020.2.10,Linux x86_64,60,,,,,,,,,,,,,,,SoundMST/Wind_B.wav,1,1,OLD,B,,,2,0,0.27115,0,121,121,121,1,,
,,,,,,,,,,,,,,603f8db40379eb034184c597,2021-03-21_17h42.46.203,GuessTheSound,2020.2.10,Linux x86_64,60,,,,,,,,,,,,,,,SoundMST/Duck_B.wav,2,2,SIMILAR,B,,,2,1,0.077435,0,122,122,122,1,,
,,,,,,,,,,,,,,603f8db40379eb034184c597,2021-03-21_17h42.46.203,GuessTheSound,2020.2.10,Linux x86_64,60,,,,,,,,,,,,,,,SoundMST/DialTone.wav,1,1,OLD,B,,,2,0,0.021905,0,123,123,123,1,,
,,,,,,,,,,,,,,603f8db40379eb034184c597,2021-03-21_17h42.46.203,GuessTheSound,2020.2.10,Linux x86_64,60,,,,,,,,,,,,,,,SoundMST/Buzz.wav,1,1,OLD,B,,,1,1,0.075415,0,124,124,124,1,,
,,,,,,,,,,,,,,603f8db40379eb034184c597,2021-03-21_17h42.46.203,GuessTheSound,2020.2.10,Linux x86_64,60,,,,,,,,,,,,,,,SoundMST/Pour_C.wav,2,2,SIMILAR,B,,,2,1,0.20539,0,125,125,125,1,,
,,,,,,,,,,,,,,603f8db40379eb034184c597,2021-03-21_17h42.46.203,GuessTheSound,2020.2.10,Linux x86_64,60,,,,,,,,,,,,,,,SoundMST/Typing.wav,1,1,OLD,B,,,1,1,1.46266,0,126,126,126,1,,
,,,,,,,,,,,,,,603f8db40379eb034184c597,2021-03-21_17h42.46.203,GuessTheSound,2020.2.10,Linux x86_64,60,,,,,,,,,,,,,,,SoundMST/Sleighbells_B.wav,1,1,OLD,B,,,1,1,0.055405,0,127,127,127,1,,
,,,,,,,,,,,,,,603f8db40379eb034184c597,2021-03-21_17h42.46.203,GuessTheSound,2020.2.10,Linux x86_64,60,,,,,,,,,,,,,,,,,,,,,,,,,,,,,,space,22.70306
