VolumeContinueKey.keys,VolumeContinueKey.rt,HeadphoneContinueKey.keys,HeadphoneContinueKey.rt,CheckResp.keys,CheckResp.corr,CheckResp.rt,trials_2.thisRepN,trials_2.thisTrialN,trials_2.thisN,trials_2.thisIndex,trials_2.ran,File,Correct,participant,date,expName,psychopyVersion,OS,frameRate,key_resp_2.keys,key_resp_2.rt,key_resp_3.keys,key_resp_3.rt,WelcomeContinueKey2.keys,WelcomeContinueKey2.rt,Practice_resp.keys,Practice_resp.corr,Practice_resp.rt,PracticeLoop.thisRepN,PracticeLoop.thisTrialN,PracticeLoop.thisN,PracticeLoop.thisIndex,PracticeLoop.ran,SoundFile,SoundCorrect,Correct2,SoundType,Trial,StartTast.keys,StartTast.rt,key_resp.keys,key_resp.corr,key_resp.rt,trials.thisRepN,trials.thisTrialN,trials.thisN,trials.thisIndex,trials.ran
space,0.56008,space,0.45199,1,1,0.499835,0,0,0,1,1,Headphone/t1_2.wav,1,603f8db40379eb034184c597,2021-03-21_17h26.01.491,GuessTheSound,2020.2.10,Linux x86_64,60,,,,,,,,,,,,,,,,,,,,,,,,,,,,,
,,,,3,1,0.3619,0,1,1,4,1,Headphone/t3_1.wav,3,603f8db40379eb034184c597,2021-03-21_17h26.01.491,GuessTheSound,2020.2.10,Linux x86_64,60,,,,,,,,,,,,,,,,,,,,,,,,,,,,,
,,,,2,1,0.07434,0,2,2,2,1,Headphone/t2_1.wav,2,603f8db40379eb034184c597,2021-03-21_17h26.01.491,GuessTheSound,2020.2.10,Linux x86_64,60,,,,,,,,,,,,,,,,,,,,,,,,,,,,,
,,,,2,1,0.188435,0,3,3,3,1,Headphone/t2_2.wav,2,603f8db40379eb034184c597,2021-03-21_17h26.01.491,GuessTheSound,2020.2.10,Linux x86_64,60,,,,,,,,,,,,,,,,,,,,,,,,,,,,,
,,,,3,1,0.49376,0,4,4,5,1,Headphone/t3_2.wav,3,603f8db40379eb034184c597,2021-03-21_17h26.01.491,GuessTheSound,2020.2.10,Linux x86_64,60,,,,,,,,,,,,,,,,,,,,,,,,,,,,,
,,,,1,1,0.218185,0,5,5,0,1,Headphone/t1_1.wav,1,603f8db40379eb034184c597,2021-03-21_17h26.01.491,GuessTheSound,2020.2.10,Linux x86_64,60,,,,,,,,,,,,,,,,,,,,,,,,,,,,,
,,,,,,,,,,,,,,603f8db40379eb034184c597,2021-03-21_17h26.01.491,GuessTheSound,2020.2.10,Linux x86_64,60,space,0.50083,space,0.484285,space,0.455175,2,1,1.969885,0,0,0,0,1,Practice/Seagull_A.wav,2,3,NEW,Practice,,,,,,,,,,
,,,,,,,,,,,,,,603f8db40379eb034184c597,2021-03-21_17h26.01.491,GuessTheSound,2020.2.10,Linux x86_64,60,,,,,,,2,1,0.310075,0,1,1,1,1,Practice/Skid_B.wav,2,3,NEW,Practice,,,,,,,,,,
,,,,,,,,,,,,,,603f8db40379eb034184c597,2021-03-21_17h26.01.491,GuessTheSound,2020.2.10,Linux x86_64,60,,,,,,,1,1,0.429635,0,2,2,2,1,Practice/Seagull_A.wav,1,1,OLD,Practice,,,,,,,,,,
,,,,,,,,,,,,,,603f8db40379eb034184c597,2021-03-21_17h26.01.491,GuessTheSound,2020.2.10,Linux x86_64,60,,,,,,,2,1,0.38303,0,3,3,3,1,Practice/Gargle_A.wav,2,3,NEW,Practice,,,,,,,,,,
,,,,,,,,,,,,,,603f8db40379eb034184c597,2021-03-21_17h26.01.491,GuessTheSound,2020.2.10,Linux x86_64,60,,,,,,,2,1,0.32093,0,4,4,4,1,Practice/Gargle_B.wav,2,2,SIMILAR,Practice,,,,,,,,,,
,,,,,,,,,,,,,,603f8db40379eb034184c597,2021-03-21_17h26.01.491,GuessTheSound,2020.2.10,Linux x86_64,60,,,,,,,,,,,,,,,SoundMST/CarStart_E.wav,2,3,NEW,C,space,0.55471,2,1,0.95478,0,0,0,0,1
,,,,,,,,,,,,,,603f8db40379eb034184c597,2021-03-21_17h26.01.491,GuessTheSound,2020.2.10,Linux x86_64,60,,,,,,,,,,,,,,,SoundMST/Bird_C.wav,2,3,NEW,C,,,2,1,0.504615,0,1,1,1,1
,,,,,,,,,,,,,,603f8db40379eb034184c597,2021-03-21_17h26.01.491,GuessTheSound,2020.2.10,Linux x86_64,60,,,,,,,,,,,,,,,SoundMST/Bubbles_A.wav,2,3,NEW,C,,,2,1,0.316725,0,2,2,2,1
,,,,,,,,,,,,,,603f8db40379eb034184c597,2021-03-21_17h26.01.491,GuessTheSound,2020.2.10,Linux x86_64,60,,,,,,,,,,,,,,,SoundMST/Horse.wav,2,3,NEW,C,,,2,1,0.28572,0,3,3,3,1
,,,,,,,,,,,,,,603f8db40379eb034184c597,2021-03-21_17h26.01.491,GuessTheSound,2020.2.10,Linux x86_64,60,,,,,,,,,,,,,,,SoundMST/IceDrop.wav,2,3,NEW,C,,,2,1,0.467235,0,4,4,4,1
,,,,,,,,,,,,,,603f8db40379eb034184c597,2021-03-21_17h26.01.491,GuessTheSound,2020.2.10,Linux x86_64,60,,,,,,,,,,,,,,,SoundMST/Sleighbells_B.wav,2,3,NEW,C,,,2,1,0.053065,0,5,5,5,1
,,,,,,,,,,,,,,603f8db40379eb034184c597,2021-03-21_17h26.01.491,GuessTheSound,2020.2.10,Linux x86_64,60,,,,,,,,,,,,,,,SoundMST/Growl_G.wav,2,3,NEW,C,,,2,1,0.282845,0,6,6,6,1
,,,,,,,,,,,,,,603f8db40379eb034184c597,2021-03-21_17h26.01.491,GuessTheSound,2020.2.10,Linux x86_64,60,,,,,,,,,,,,,,,SoundMST/Chicken_A.wav,2,3,NEW,C,,,2,1,0.30968,0,7,7,7,1
,,,,,,,,,,,,,,603f8db40379eb034184c597,2021-03-21_17h26.01.491,GuessTheSound,2020.2.10,Linux x86_64,60,,,,,,,,,,,,,,,SoundMST/Slurp.wav,2,3,NEW,C,,,2,1,0.346725,0,8,8,8,1
,,,,,,,,,,,,,,603f8db40379eb034184c597,2021-03-21_17h26.01.491,GuessTheSound,2020.2.10,Linux x86_64,60,,,,,,,,,,,,,,,SoundMST/CarStart_D.wav,2,2,SIMILAR,C,,,1,0,0.24021,0,9,9,9,1
,,,,,,,,,,,,,,603f8db40379eb034184c597,2021-03-21_17h26.01.491,GuessTheSound,2020.2.10,Linux x86_64,60,,,,,,,,,,,,,,,SoundMST/Printer.wav,2,3,NEW,C,,,2,1,0.257605,0,10,10,10,1
,,,,,,,,,,,,,,603f8db40379eb034184c597,2021-03-21_17h26.01.491,GuessTheSound,2020.2.10,Linux x86_64,60,,,,,,,,,,,,,,,SoundMST/Bowlingpins.wav,2,3,NEW,C,,,2,1,0.124345,0,11,11,11,1
,,,,,,,,,,,,,,603f8db40379eb034184c597,2021-03-21_17h26.01.491,GuessTheSound,2020.2.10,Linux x86_64,60,,,,,,,,,,,,,,,SoundMST/Fireworks.wav,2,3,NEW,C,,,2,1,0.335435,0,12,12,12,1
,,,,,,,,,,,,,,603f8db40379eb034184c597,2021-03-21_17h26.01.491,GuessTheSound,2020.2.10,Linux x86_64,60,,,,,,,,,,,,,,,SoundMST/Howl.wav,2,3,NEW,C,,,2,1,0.017195,0,13,13,13,1
,,,,,,,,,,,,,,603f8db40379eb034184c597,2021-03-21_17h26.01.491,GuessTheSound,2020.2.10,Linux x86_64,60,,,,,,,,,,,,,,,SoundMST/Goat_B.wav,2,3,NEW,C,,,2,1,0.493545,0,14,14,14,1
,,,,,,,,,,,,,,603f8db40379eb034184c597,2021-03-21_17h26.01.491,GuessTheSound,2020.2.10,Linux x86_64,60,,,,,,,,,,,,,,,SoundMST/Horse.wav,1,1,OLD,C,,,1,1,0.037895,0,15,15,15,1
,,,,,,,,,,,,,,603f8db40379eb034184c597,2021-03-21_17h26.01.491,GuessTheSound,2020.2.10,Linux x86_64,60,,,,,,,,,,,,,,,SoundMST/Laugh_A.wav,2,3,NEW,C,,,1,0,0.186525,0,16,16,16,1
,,,,,,,,,,,,,,603f8db40379eb034184c597,2021-03-21_17h26.01.491,GuessTheSound,2020.2.10,Linux x86_64,60,,,,,,,,,,,,,,,SoundMST/Bubbles_B.wav,2,2,SIMILAR,C,,,1,0,0.04536,0,17,17,17,1
,,,,,,,,,,,,,,603f8db40379eb034184c597,2021-03-21_17h26.01.491,GuessTheSound,2020.2.10,Linux x86_64,60,,,,,,,,,,,,,,,SoundMST/Footsteps_C.wav,2,3,NEW,C,,,2,1,0.10362,0,18,18,18,1
,,,,,,,,,,,,,,603f8db40379eb034184c597,2021-03-21_17h26.01.491,GuessTheSound,2020.2.10,Linux x86_64,60,,,,,,,,,,,,,,,SoundMST/Duck_A.wav,2,3,NEW,C,,,2,1,0.185245,0,19,19,19,1
,,,,,,,,,,,,,,603f8db40379eb034184c597,2021-03-21_17h26.01.491,GuessTheSound,2020.2.10,Linux x86_64,60,,,,,,,,,,,,,,,SoundMST/Cow.wav,2,3,NEW,C,,,1,0,0.242065,0,20,20,20,1
,,,,,,,,,,,,,,603f8db40379eb034184c597,2021-03-21_17h26.01.491,GuessTheSound,2020.2.10,Linux x86_64,60,,,,,,,,,,,,,,,SoundMST/Airhorn.wav,2,3,NEW,C,,,2,1,0.424925,0,21,21,21,1
,,,,,,,,,,,,,,603f8db40379eb034184c597,2021-03-21_17h26.01.491,GuessTheSound,2020.2.10,Linux x86_64,60,,,,,,,,,,,,,,,SoundMST/Printer.wav,1,1,OLD,C,,,1,1,0.40071,0,22,22,22,1
,,,,,,,,,,,,,,603f8db40379eb034184c597,2021-03-21_17h26.01.491,GuessTheSound,2020.2.10,Linux x86_64,60,,,,,,,,,,,,,,,SoundMST/Sleighbells_B.wav,1,1,OLD,C,,,1,1,0.48945,0,23,23,23,1
,,,,,,,,,,,,,,603f8db40379eb034184c597,2021-03-21_17h26.01.491,GuessTheSound,2020.2.10,Linux x86_64,60,,,,,,,,,,,,,,,SoundMST/Camera.wav,2,3,NEW,C,,,2,1,0.338735,0,24,24,24,1
,,,,,,,,,,,,,,603f8db40379eb034184c597,2021-03-21_17h26.01.491,GuessTheSound,2020.2.10,Linux x86_64,60,,,,,,,,,,,,,,,SoundMST/Growl_H.wav,2,2,SIMILAR,C,,,1,0,0.47291,0,25,25,25,1
,,,,,,,,,,,,,,603f8db40379eb034184c597,2021-03-21_17h26.01.491,GuessTheSound,2020.2.10,Linux x86_64,60,,,,,,,,,,,,,,,SoundMST/Whistle_B.wav,2,3,NEW,C,,,2,1,0.32729,0,26,26,26,1
,,,,,,,,,,,,,,603f8db40379eb034184c597,2021-03-21_17h26.01.491,GuessTheSound,2020.2.10,Linux x86_64,60,,,,,,,,,,,,,,,SoundMST/Piano_D.wav,2,3,NEW,C,,,2,1,0.474955,0,27,27,27,1
,,,,,,,,,,,,,,603f8db40379eb034184c597,2021-03-21_17h26.01.491,GuessTheSound,2020.2.10,Linux x86_64,60,,,,,,,,,,,,,,,SoundMST/Coin_D.wav,2,3,NEW,C,,,2,1,0.314745,0,28,28,28,1
,,,,,,,,,,,,,,603f8db40379eb034184c597,2021-03-21_17h26.01.491,GuessTheSound,2020.2.10,Linux x86_64,60,,,,,,,,,,,,,,,SoundMST/Bird_A.wav,2,2,SIMILAR,C,,,2,1,0.280825,0,29,29,29,1
,,,,,,,,,,,,,,603f8db40379eb034184c597,2021-03-21_17h26.01.491,GuessTheSound,2020.2.10,Linux x86_64,60,,,,,,,,,,,,,,,SoundMST/PaperRip.wav,2,3,NEW,C,,,2,1,0.26835,0,30,30,30,1
,,,,,,,,,,,,,,603f8db40379eb034184c597,2021-03-21_17h26.01.491,GuessTheSound,2020.2.10,Linux x86_64,60,,,,,,,,,,,,,,,SoundMST/Slurp.wav,1,1,OLD,C,,,1,1,0.251865,0,31,31,31,1
,,,,,,,,,,,,,,603f8db40379eb034184c597,2021-03-21_17h26.01.491,GuessTheSound,2020.2.10,Linux x86_64,60,,,,,,,,,,,,,,,SoundMST/Howl.wav,1,1,OLD,C,,,1,1,0.470785,0,32,32,32,1
,,,,,,,,,,,,,,603f8db40379eb034184c597,2021-03-21_17h26.01.491,GuessTheSound,2020.2.10,Linux x86_64,60,,,,,,,,,,,,,,,SoundMST/IceDrop.wav,1,1,OLD,C,,,1,1,0.275655,0,33,33,33,1
,,,,,,,,,,,,,,603f8db40379eb034184c597,2021-03-21_17h26.01.491,GuessTheSound,2020.2.10,Linux x86_64,60,,,,,,,,,,,,,,,SoundMST/Pour_B.wav,2,3,NEW,C,,,1,0,0.479505,0,34,34,34,1
,,,,,,,,,,,,,,603f8db40379eb034184c597,2021-03-21_17h26.01.491,GuessTheSound,2020.2.10,Linux x86_64,60,,,,,,,,,,,,,,,SoundMST/Fireworks.wav,1,1,OLD,C,,,1,1,0.501425,0,35,35,35,1
,,,,,,,,,,,,,,603f8db40379eb034184c597,2021-03-21_17h26.01.491,GuessTheSound,2020.2.10,Linux x86_64,60,,,,,,,,,,,,,,,SoundMST/Footsteps_F.wav,2,2,SIMILAR,C,,,2,1,0.18922,0,36,36,36,1
,,,,,,,,,,,,,,603f8db40379eb034184c597,2021-03-21_17h26.01.491,GuessTheSound,2020.2.10,Linux x86_64,60,,,,,,,,,,,,,,,SoundMST/Chicken_A.wav,1,1,OLD,C,,,1,1,0.218045,0,37,37,37,1
,,,,,,,,,,,,,,603f8db40379eb034184c597,2021-03-21_17h26.01.491,GuessTheSound,2020.2.10,Linux x86_64,60,,,,,,,,,,,,,,,SoundMST/Bullfrog.wav,2,3,NEW,C,,,1,0,0.232545,0,38,38,38,1
,,,,,,,,,,,,,,603f8db40379eb034184c597,2021-03-21_17h26.01.491,GuessTheSound,2020.2.10,Linux x86_64,60,,,,,,,,,,,,,,,SoundMST/Bowlingpins.wav,1,1,OLD,C,,,2,0,0.40635,0,39,39,39,1
,,,,,,,,,,,,,,603f8db40379eb034184c597,2021-03-21_17h26.01.491,GuessTheSound,2020.2.10,Linux x86_64,60,,,,,,,,,,,,,,,SoundMST/Helicopter_A.wav,2,3,NEW,C,,,2,1,0.288495,0,40,40,40,1
,,,,,,,,,,,,,,603f8db40379eb034184c597,2021-03-21_17h26.01.491,GuessTheSound,2020.2.10,Linux x86_64,60,,,,,,,,,,,,,,,SoundMST/Goat_C.wav,2,2,SIMILAR,C,,,2,1,0.273215,0,41,41,41,1
,,,,,,,,,,,,,,603f8db40379eb034184c597,2021-03-21_17h26.01.491,GuessTheSound,2020.2.10,Linux x86_64,60,,,,,,,,,,,,,,,SoundMST/HairDryer_A.wav,2,3,NEW,C,,,2,1,0.22406,0,42,42,42,1
,,,,,,,,,,,,,,603f8db40379eb034184c597,2021-03-21_17h26.01.491,GuessTheSound,2020.2.10,Linux x86_64,60,,,,,,,,,,,,,,,SoundMST/Duck_B.wav,2,2,SIMILAR,C,,,2,1,0.508855,0,43,43,43,1
,,,,,,,,,,,,,,603f8db40379eb034184c597,2021-03-21_17h26.01.491,GuessTheSound,2020.2.10,Linux x86_64,60,,,,,,,,,,,,,,,SoundMST/PaperRip.wav,1,1,OLD,C,,,2,0,0.30862,0,44,44,44,1
,,,,,,,,,,,,,,603f8db40379eb034184c597,2021-03-21_17h26.01.491,GuessTheSound,2020.2.10,Linux x86_64,60,,,,,,,,,,,,,,,SoundMST/Dog_H.wav,2,3,NEW,C,,,2,1,0.269555,0,45,45,45,1
,,,,,,,,,,,,,,603f8db40379eb034184c597,2021-03-21_17h26.01.491,GuessTheSound,2020.2.10,Linux x86_64,60,,,,,,,,,,,,,,,SoundMST/Camera.wav,1,1,OLD,C,,,1,1,0.450905,0,46,46,46,1
,,,,,,,,,,,,,,603f8db40379eb034184c597,2021-03-21_17h26.01.491,GuessTheSound,2020.2.10,Linux x86_64,60,,,,,,,,,,,,,,,SoundMST/Laugh_D.wav,2,2,SIMILAR,C,,,2,1,0.106375,0,47,47,47,1
,,,,,,,,,,,,,,603f8db40379eb034184c597,2021-03-21_17h26.01.491,GuessTheSound,2020.2.10,Linux x86_64,60,,,,,,,,,,,,,,,SoundMST/Sneeze_B.wav,2,3,NEW,C,,,2,1,0.308855,0,48,48,48,1
,,,,,,,,,,,,,,603f8db40379eb034184c597,2021-03-21_17h26.01.491,GuessTheSound,2020.2.10,Linux x86_64,60,,,,,,,,,,,,,,,SoundMST/Cow.wav,1,1,OLD,C,,,1,1,0.4235,0,49,49,49,1
,,,,,,,,,,,,,,603f8db40379eb034184c597,2021-03-21_17h26.01.491,GuessTheSound,2020.2.10,Linux x86_64,60,,,,,,,,,,,,,,,SoundMST/Donkey.wav,2,3,NEW,C,,,2,1,0.307555,0,50,50,50,1
,,,,,,,,,,,,,,603f8db40379eb034184c597,2021-03-21_17h26.01.491,GuessTheSound,2020.2.10,Linux x86_64,60,,,,,,,,,,,,,,,SoundMST/Coin_E.wav,2,2,SIMILAR,C,,,1,0,0.33454,0,51,51,51,1
,,,,,,,,,,,,,,603f8db40379eb034184c597,2021-03-21_17h26.01.491,GuessTheSound,2020.2.10,Linux x86_64,60,,,,,,,,,,,,,,,SoundMST/Buzz.wav,2,3,NEW,C,,,2,1,0.327155,0,52,52,52,1
,,,,,,,,,,,,,,603f8db40379eb034184c597,2021-03-21_17h26.01.491,GuessTheSound,2020.2.10,Linux x86_64,60,,,,,,,,,,,,,,,SoundMST/Piano_D.wav,1,1,OLD,C,,,1,1,0.28802,0,53,53,53,1
,,,,,,,,,,,,,,603f8db40379eb034184c597,2021-03-21_17h26.01.491,GuessTheSound,2020.2.10,Linux x86_64,60,,,,,,,,,,,,,,,SoundMST/Hammer_A.wav,2,3,NEW,C,,,2,1,0.42161,0,54,54,54,1
,,,,,,,,,,,,,,603f8db40379eb034184c597,2021-03-21_17h26.01.491,GuessTheSound,2020.2.10,Linux x86_64,60,,,,,,,,,,,,,,,SoundMST/Airhorn.wav,1,1,OLD,C,,,1,1,0.285665,0,55,55,55,1
,,,,,,,,,,,,,,603f8db40379eb034184c597,2021-03-21_17h26.01.491,GuessTheSound,2020.2.10,Linux x86_64,60,,,,,,,,,,,,,,,SoundMST/Whistle_C.wav,2,2,SIMILAR,C,,,1,0,0.575835,0,56,56,56,1
,,,,,,,,,,,,,,603f8db40379eb034184c597,2021-03-21_17h26.01.491,GuessTheSound,2020.2.10,Linux x86_64,60,,,,,,,,,,,,,,,SoundMST/Faucet_A.wav,2,3,NEW,C,,,2,1,0.273955,0,57,57,57,1
,,,,,,,,,,,,,,603f8db40379eb034184c597,2021-03-21_17h26.01.491,GuessTheSound,2020.2.10,Linux x86_64,60,,,,,,,,,,,,,,,SoundMST/Pour_C.wav,2,2,SIMILAR,C,,,1,0,1.39262,0,58,58,58,1
,,,,,,,,,,,,,,603f8db40379eb034184c597,2021-03-21_17h26.01.491,GuessTheSound,2020.2.10,Linux x86_64,60,,,,,,,,,,,,,,,SoundMST/Crow_B.wav,2,3,NEW,C,,,1,0,0.28512,0,59,59,59,1
,,,,,,,,,,,,,,603f8db40379eb034184c597,2021-03-21_17h26.01.491,GuessTheSound,2020.2.10,Linux x86_64,60,,,,,,,,,,,,,,,SoundMST/Trumpet_B.wav,2,3,NEW,C,,,2,1,0.21928,0,60,60,60,1
,,,,,,,,,,,,,,603f8db40379eb034184c597,2021-03-21_17h26.01.491,GuessTheSound,2020.2.10,Linux x86_64,60,,,,,,,,,,,,,,,SoundMST/Bullfrog.wav,1,1,OLD,C,,,1,1,0.30804,0,61,61,61,1
,,,,,,,,,,,,,,603f8db40379eb034184c597,2021-03-21_17h26.01.491,GuessTheSound,2020.2.10,Linux x86_64,60,,,,,,,,,,,,,,,SoundMST/Helicopter_A.wav,1,1,OLD,C,,,1,1,1.44695,0,62,62,62,1
,,,,,,,,,,,,,,603f8db40379eb034184c597,2021-03-21_17h26.01.491,GuessTheSound,2020.2.10,Linux x86_64,60,,,,,,,,,,,,,,,SoundMST/Elephant_C.wav,2,3,NEW,C,,,2,1,0.763805,0,63,63,63,1
,,,,,,,,,,,,,,603f8db40379eb034184c597,2021-03-21_17h26.01.491,GuessTheSound,2020.2.10,Linux x86_64,60,,,,,,,,,,,,,,,SoundMST/Sneeze_B.wav,1,1,OLD,C,,,2,0,1.67128,0,64,64,64,1
,,,,,,,,,,,,,,603f8db40379eb034184c597,2021-03-21_17h26.01.491,GuessTheSound,2020.2.10,Linux x86_64,60,,,,,,,,,,,,,,,SoundMST/Chime_B.wav,2,3,NEW,C,,,1,0,0.718275,0,65,65,65,1
,,,,,,,,,,,,,,603f8db40379eb034184c597,2021-03-21_17h26.01.491,GuessTheSound,2020.2.10,Linux x86_64,60,,,,,,,,,,,,,,,SoundMST/Phone_D.wav,2,3,NEW,C,,,2,1,0.27409,0,66,66,66,1
,,,,,,,,,,,,,,603f8db40379eb034184c597,2021-03-21_17h26.01.491,GuessTheSound,2020.2.10,Linux x86_64,60,,,,,,,,,,,,,,,SoundMST/HairDryer_A.wav,1,1,OLD,C,,,1,1,0.206495,0,67,67,67,1
,,,,,,,,,,,,,,603f8db40379eb034184c597,2021-03-21_17h26.01.491,GuessTheSound,2020.2.10,Linux x86_64,60,,,,,,,,,,,,,,,SoundMST/Puff_A.wav,2,3,NEW,C,,,1,0,0.322295,0,68,68,68,1
,,,,,,,,,,,,,,603f8db40379eb034184c597,2021-03-21_17h26.01.491,GuessTheSound,2020.2.10,Linux x86_64,60,,,,,,,,,,,,,,,SoundMST/Dog_F.wav,2,2,SIMILAR,C,,,2,1,0.58342,0,69,69,69,1
,,,,,,,,,,,,,,603f8db40379eb034184c597,2021-03-21_17h26.01.491,GuessTheSound,2020.2.10,Linux x86_64,60,,,,,,,,,,,,,,,SoundMST/Donkey.wav,1,1,OLD,C,,,1,1,0.30539,0,70,70,70,1
,,,,,,,,,,,,,,603f8db40379eb034184c597,2021-03-21_17h26.01.491,GuessTheSound,2020.2.10,Linux x86_64,60,,,,,,,,,,,,,,,SoundMST/Toilet_B.wav,2,3,NEW,C,,,1,0,0.308945,0,71,71,71,1
,,,,,,,,,,,,,,603f8db40379eb034184c597,2021-03-21_17h26.01.491,GuessTheSound,2020.2.10,Linux x86_64,60,,,,,,,,,,,,,,,SoundMST/Writing_A.wav,2,3,NEW,C,,,2,1,0.374945,0,72,72,72,1
,,,,,,,,,,,,,,603f8db40379eb034184c597,2021-03-21_17h26.01.491,GuessTheSound,2020.2.10,Linux x86_64,60,,,,,,,,,,,,,,,SoundMST/Cello.wav,2,3,NEW,C,,,2,1,0.49417,0,73,73,73,1
,,,,,,,,,,,,,,603f8db40379eb034184c597,2021-03-21_17h26.01.491,GuessTheSound,2020.2.10,Linux x86_64,60,,,,,,,,,,,,,,,SoundMST/Crow_A.wav,2,2,SIMILAR,C,,,1,0,0.59292,0,74,74,74,1
,,,,,,,,,,,,,,603f8db40379eb034184c597,2021-03-21_17h26.01.491,GuessTheSound,2020.2.10,Linux x86_64,60,,,,,,,,,,,,,,,SoundMST/Hammer_A.wav,1,1,OLD,C,,,1,1,0.77026,0,75,75,75,1
,,,,,,,,,,,,,,603f8db40379eb034184c597,2021-03-21_17h26.01.491,GuessTheSound,2020.2.10,Linux x86_64,60,,,,,,,,,,,,,,,SoundMST/Cuckoo_A.wav,2,3,NEW,C,,,2,1,0.795005,0,76,76,76,1
,,,,,,,,,,,,,,603f8db40379eb034184c597,2021-03-21_17h26.01.491,GuessTheSound,2020.2.10,Linux x86_64,60,,,,,,,,,,,,,,,SoundMST/Buzz.wav,1,1,OLD,C,,,1,1,1.47016,0,77,77,77,1
,,,,,,,,,,,,,,603f8db40379eb034184c597,2021-03-21_17h26.01.491,GuessTheSound,2020.2.10,Linux x86_64,60,,,,,,,,,,,,,,,SoundMST/Siren_E.wav,2,3,NEW,C,,,2,1,0.36992,0,78,78,78,1
,,,,,,,,,,,,,,603f8db40379eb034184c597,2021-03-21_17h26.01.491,GuessTheSound,2020.2.10,Linux x86_64,60,,,,,,,,,,,,,,,SoundMST/Trumpet_B.wav,1,1,OLD,C,,,1,1,1.055145,0,79,79,79,1
,,,,,,,,,,,,,,603f8db40379eb034184c597,2021-03-21_17h26.01.491,GuessTheSound,2020.2.10,Linux x86_64,60,,,,,,,,,,,,,,,SoundMST/Wind_B.wav,2,3,NEW,C,,,1,0,0.625265,0,80,80,80,1
,,,,,,,,,,,,,,603f8db40379eb034184c597,2021-03-21_17h26.01.491,GuessTheSound,2020.2.10,Linux x86_64,60,,,,,,,,,,,,,,,SoundMST/Cat_A.wav,2,3,NEW,C,,,2,1,0.30922,0,81,81,81,1
,,,,,,,,,,,,,,603f8db40379eb034184c597,2021-03-21_17h26.01.491,GuessTheSound,2020.2.10,Linux x86_64,60,,,,,,,,,,,,,,,SoundMST/Phone_E.wav,2,2,SIMILAR,C,,,2,1,0.25432,0,82,82,82,1
,,,,,,,,,,,,,,603f8db40379eb034184c597,2021-03-21_17h26.01.491,GuessTheSound,2020.2.10,Linux x86_64,60,,,,,,,,,,,,,,,SoundMST/Chomp_A.wav,2,3,NEW,C,,,2,1,0.400115,0,83,83,83,1
,,,,,,,,,,,,,,603f8db40379eb034184c597,2021-03-21_17h26.01.491,GuessTheSound,2020.2.10,Linux x86_64,60,,,,,,,,,,,,,,,SoundMST/Elephant_A.wav,2,2,SIMILAR,C,,,1,0,0.384435,0,84,84,84,1
,,,,,,,,,,,,,,603f8db40379eb034184c597,2021-03-21_17h26.01.491,GuessTheSound,2020.2.10,Linux x86_64,60,,,,,,,,,,,,,,,SoundMST/Cup.wav,2,3,NEW,C,,,2,1,1.020465,0,85,85,85,1
,,,,,,,,,,,,,,603f8db40379eb034184c597,2021-03-21_17h26.01.491,GuessTheSound,2020.2.10,Linux x86_64,60,,,,,,,,,,,,,,,SoundMST/Chime_A.wav,2,2,SIMILAR,C,,,1,0,0.288325,0,86,86,86,1
,,,,,,,,,,,,,,603f8db40379eb034184c597,2021-03-21_17h26.01.491,GuessTheSound,2020.2.10,Linux x86_64,60,,,,,,,,,,,,,,,SoundMST/Droplet_B.wav,2,3,NEW,C,,,2,1,0.86782,0,87,87,87,1
,,,,,,,,,,,,,,603f8db40379eb034184c597,2021-03-21_17h26.01.491,GuessTheSound,2020.2.10,Linux x86_64,60,,,,,,,,,,,,,,,SoundMST/Faucet_C.wav,2,2,SIMILAR,C,,,2,1,0.71929,0,88,88,88,1
,,,,,,,,,,,,,,603f8db40379eb034184c597,2021-03-21_17h26.01.491,GuessTheSound,2020.2.10,Linux x86_64,60,,,,,,,,,,,,,,,SoundMST/Puff_A.wav,1,1,OLD,C,,,1,1,0.29583,0,89,89,89,1
,,,,,,,,,,,,,,603f8db40379eb034184c597,2021-03-21_17h26.01.491,GuessTheSound,2020.2.10,Linux x86_64,60,,,,,,,,,,,,,,,SoundMST/Clap_B.wav,2,3,NEW,C,,,2,1,0.13921,0,90,90,90,1
,,,,,,,,,,,,,,603f8db40379eb034184c597,2021-03-21_17h26.01.491,GuessTheSound,2020.2.10,Linux x86_64,60,,,,,,,,,,,,,,,SoundMST/Cello.wav,1,1,OLD,C,,,1,1,0.12536,0,91,91,91,1
,,,,,,,,,,,,,,603f8db40379eb034184c597,2021-03-21_17h26.01.491,GuessTheSound,2020.2.10,Linux x86_64,60,,,,,,,,,,,,,,,SoundMST/Mosquito_B.wav,2,3,NEW,C,,,2,1,0.320625,0,92,92,92,1
,,,,,,,,,,,,,,603f8db40379eb034184c597,2021-03-21_17h26.01.491,GuessTheSound,2020.2.10,Linux x86_64,60,,,,,,,,,,,,,,,SoundMST/Writing_C.wav,2,2,SIMILAR,C,,,1,0,1.08638,0,93,93,93,1
,,,,,,,,,,,,,,603f8db40379eb034184c597,2021-03-21_17h26.01.491,GuessTheSound,2020.2.10,Linux x86_64,60,,,,,,,,,,,,,,,SoundMST/Guitar_B.wav,2,3,NEW,C,,,1,0,0.30205,0,94,94,94,1
,,,,,,,,,,,,,,603f8db40379eb034184c597,2021-03-21_17h26.01.491,GuessTheSound,2020.2.10,Linux x86_64,60,,,,,,,,,,,,,,,SoundMST/Toilet_B.wav,1,1,OLD,C,,,1,1,0.799085,0,95,95,95,1
,,,,,,,,,,,,,,603f8db40379eb034184c597,2021-03-21_17h26.01.491,GuessTheSound,2020.2.10,Linux x86_64,60,,,,,,,,,,,,,,,SoundMST/Bagpipe.wav,2,3,NEW,C,,,2,1,1.14415,0,96,96,96,1
,,,,,,,,,,,,,,603f8db40379eb034184c597,2021-03-21_17h26.01.491,GuessTheSound,2020.2.10,Linux x86_64,60,,,,,,,,,,,,,,,SoundMST/Cuckoo_A.wav,1,1,OLD,C,,,1,1,0.75185,0,97,97,97,1
,,,,,,,,,,,,,,603f8db40379eb034184c597,2021-03-21_17h26.01.491,GuessTheSound,2020.2.10,Linux x86_64,60,,,,,,,,,,,,,,,SoundMST/Wind_B.wav,1,1,OLD,C,,,1,1,0.320165,0,98,98,98,1
,,,,,,,,,,,,,,603f8db40379eb034184c597,2021-03-21_17h26.01.491,GuessTheSound,2020.2.10,Linux x86_64,60,,,,,,,,,,,,,,,SoundMST/Cough_C.wav,2,3,NEW,C,,,1,0,0.764395,0,99,99,99,1
,,,,,,,,,,,,,,603f8db40379eb034184c597,2021-03-21_17h26.01.491,GuessTheSound,2020.2.10,Linux x86_64,60,,,,,,,,,,,,,,,SoundMST/ManWhistle.wav,2,3,NEW,C,,,2,1,0.280065,0,100,100,100,1
,,,,,,,,,,,,,,603f8db40379eb034184c597,2021-03-21_17h26.01.491,GuessTheSound,2020.2.10,Linux x86_64,60,,,,,,,,,,,,,,,SoundMST/Chomp_C.wav,2,2,SIMILAR,C,,,1,0,0.24354,0,101,101,101,1
,,,,,,,,,,,,,,603f8db40379eb034184c597,2021-03-21_17h26.01.491,GuessTheSound,2020.2.10,Linux x86_64,60,,,,,,,,,,,,,,,SoundMST/Siren_A.wav,2,2,SIMILAR,C,,,2,1,0.405785,0,102,102,102,1
,,,,,,,,,,,,,,603f8db40379eb034184c597,2021-03-21_17h26.01.491,GuessTheSound,2020.2.10,Linux x86_64,60,,,,,,,,,,,,,,,SoundMST/Thunder_A.wav,2,3,NEW,C,,,2,1,0.274685,0,103,103,103,1
,,,,,,,,,,,,,,603f8db40379eb034184c597,2021-03-21_17h26.01.491,GuessTheSound,2020.2.10,Linux x86_64,60,,,,,,,,,,,,,,,SoundMST/Cat_A.wav,1,1,OLD,C,,,1,1,0.30457,0,104,104,104,1
,,,,,,,,,,,,,,603f8db40379eb034184c597,2021-03-21_17h26.01.491,GuessTheSound,2020.2.10,Linux x86_64,60,,,,,,,,,,,,,,,SoundMST/Snore_C.wav,2,3,NEW,C,,,2,1,0.321195,0,105,105,105,1
,,,,,,,,,,,,,,603f8db40379eb034184c597,2021-03-21_17h26.01.491,GuessTheSound,2020.2.10,Linux x86_64,60,,,,,,,,,,,,,,,SoundMST/Cup.wav,1,1,OLD,C,,,2,0,1.13431,0,106,106,106,1
,,,,,,,,,,,,,,603f8db40379eb034184c597,2021-03-21_17h26.01.491,GuessTheSound,2020.2.10,Linux x86_64,60,,,,,,,,,,,,,,,SoundMST/Baby_F.wav,2,3,NEW,C,,,1,0,0.321775,0,107,107,107,1
,,,,,,,,,,,,,,603f8db40379eb034184c597,2021-03-21_17h26.01.491,GuessTheSound,2020.2.10,Linux x86_64,60,,,,,,,,,,,,,,,SoundMST/Droplet_B.wav,1,1,OLD,C,,,2,0,0.434325,0,108,108,108,1
,,,,,,,,,,,,,,603f8db40379eb034184c597,2021-03-21_17h26.01.491,GuessTheSound,2020.2.10,Linux x86_64,60,,,,,,,,,,,,,,,SoundMST/DialTone.wav,2,3,NEW,C,,,1,0,0.323755,0,109,109,109,1
,,,,,,,,,,,,,,603f8db40379eb034184c597,2021-03-21_17h26.01.491,GuessTheSound,2020.2.10,Linux x86_64,60,,,,,,,,,,,,,,,SoundMST/Clap_C.wav,2,2,SIMILAR,C,,,1,0,0.242325,0,110,110,110,1
,,,,,,,,,,,,,,603f8db40379eb034184c597,2021-03-21_17h26.01.491,GuessTheSound,2020.2.10,Linux x86_64,60,,,,,,,,,,,,,,,SoundMST/Heartbeat.wav,2,3,NEW,C,,,1,0,0.059245,0,111,111,111,1
,,,,,,,,,,,,,,603f8db40379eb034184c597,2021-03-21_17h26.01.491,GuessTheSound,2020.2.10,Linux x86_64,60,,,,,,,,,,,,,,,SoundMST/Guitar_B.wav,1,1,OLD,C,,,1,1,0.30589,0,112,112,112,1
,,,,,,,,,,,,,,603f8db40379eb034184c597,2021-03-21_17h26.01.491,GuessTheSound,2020.2.10,Linux x86_64,60,,,,,,,,,,,,,,,SoundMST/Typing.wav,2,3,NEW,C,,,1,0,0.50283,0,113,113,113,1
,,,,,,,,,,,,,,603f8db40379eb034184c597,2021-03-21_17h26.01.491,GuessTheSound,2020.2.10,Linux x86_64,60,,,,,,,,,,,,,,,SoundMST/Mosquito_B.wav,1,1,OLD,C,,,1,1,0.52947,0,114,114,114,1
,,,,,,,,,,,,,,603f8db40379eb034184c597,2021-03-21_17h26.01.491,GuessTheSound,2020.2.10,Linux x86_64,60,,,,,,,,,,,,,,,SoundMST/Airplane_B.wav,2,3,NEW,C,,,1,0,0.30565,0,115,115,115,1
,,,,,,,,,,,,,,603f8db40379eb034184c597,2021-03-21_17h26.01.491,GuessTheSound,2020.2.10,Linux x86_64,60,,,,,,,,,,,,,,,SoundMST/ManWhistle.wav,1,1,OLD,C,,,1,1,0.358755,0,116,116,116,1
,,,,,,,,,,,,,,603f8db40379eb034184c597,2021-03-21_17h26.01.491,GuessTheSound,2020.2.10,Linux x86_64,60,,,,,,,,,,,,,,,SoundMST/Steam.wav,2,3,NEW,C,,,2,1,0.072015,0,117,117,117,1
,,,,,,,,,,,,,,603f8db40379eb034184c597,2021-03-21_17h26.01.491,GuessTheSound,2020.2.10,Linux x86_64,60,,,,,,,,,,,,,,,SoundMST/Baby_E.wav,2,2,SIMILAR,C,,,1,0,0.30482,0,118,118,118,1
,,,,,,,,,,,,,,603f8db40379eb034184c597,2021-03-21_17h26.01.491,GuessTheSound,2020.2.10,Linux x86_64,60,,,,,,,,,,,,,,,SoundMST/Bagpipe.wav,1,1,OLD,C,,,1,1,0.340085,0,119,119,119,1
