SoundFile5,Correct,Correct2,Type,PracticeTrials.thisRepN,PracticeTrials.thisTrialN,PracticeTrials.thisN,PracticeTrials.thisIndex,trials.thisRepN,trials.thisTrialN,trials.thisN,trials.thisIndex,InstructionTxt.started,InstructionTxt.stopped,WelcomContinue.started,WelcomContinue.stopped,VolumeBeginTxt.started,VolumeBeginTxt.stopped,VolumeContinueKey.keys,VolumeContinueKey.rt,VolumeContinueKey.started,VolumeContinueKey.stopped,text.started,text.stopped,Music.started,Music.stopped,AdjustContinue.started,AdjustContinue.stopped,HeadphoneCheckBeing.started,HeadphoneCheckBeing.stopped,HeadphoneContinue.started,HeadphoneContinue.stopped,HeadphoneContinueKey.keys,HeadphoneContinueKey.rt,HeadphoneContinueKey.started,HeadphoneContinueKey.stopped,WelcomeTxt1.started,WelcomeTxt1.stopped,ContinueKey1.started,ContinueKey1.stopped,ContinueResp.keys,ContinueResp.rt,ContinueResp.started,ContinueResp.stopped,Welcome2Txt.started,Welcome2Txt.stopped,Wel2ContinueKey.keys,Wel2ContinueKey.rt,Wel2ContinueKey.started,Wel2ContinueKey.stopped,Continue2.started,Continue2.stopped,InstructionTxt2.started,InstructionTxt2.stopped,WelcomeContinue2.started,WelcomeContinue2.stopped,WelcomeContinueKey2.keys,WelcomeContinueKey2.rt,WelcomeContinueKey2.started,WelcomeContinueKey2.stopped,TrialNumber.started,TrialNumber.stopped,PracticeSound.started,PracticeSound.stopped,PracticeCross.started,PracticeCross.stopped,Practice_resp.keys,Practice_resp.corr,Practice_resp.rt,Practice_resp.started,Practice_resp.stopped,PracticeMssg.started,PracticeMssg.stopped,FeedbackCross.started,FeedbackCross.stopped,Continue.started,Continue.stopped,Options.started,Options.stopped,FeedbackMssg.started,FeedbackMssg.stopped,StartTxt.started,StartTxt.stopped,StartTast.keys,StartTast.rt,StartTast.started,StartTast.stopped,ContinueStart.started,ContinueStart.stopped,no_3.started,no_3.stopped,TargetSound.started,TargetSound.stopped,Cross.started,Cross.stopped,ItemNumber.started,ItemNumber.stopped,MSTQuestion.started,MSTQuestion.stopped,MSTResp.keys,MSTResp.corr,MSTResp.rt,MSTResp.started,MSTResp.stopped,participant,session,date,expName,psychopyVersion,frameRate,
,,,,,,,,,,,,8.061900799977593,None,8.061900799977593,None,10.597074399935082,None,space,0.4250531999859959,10.597074399935082,None,,,,,,,,,,,,,,,,,,,,,,,,,,,,,,,,,,,,,,,,,,,,,,,,,,,,,,,,,,,,,,,,,,,,,,,,,,,,,,,,,,,,001,2021_Feb_17_1645,GuessTheSound,2020.2.10,59.94607250730313,
,,,,,,,,,,,,,,,,,,,,,,11.063032799982466,None,11.063944439962505,None,11.063032799982466,None,11.597369399969466,None,11.597369399969466,None,space,2.1916178000392392,11.597369399969466,None,,,,,,,,,,,,,,,,,,,,,,,,,,,,,,,,,,,,,,,,,,,,,,,,,,,,,,,,,,,,,,,,,,,,,,001,2021_Feb_17_1645,GuessTheSound,2020.2.10,59.94607250730313,
,,,,,,,,,,,,,,,,,,,,,,,,,,,,,,,,,,,,13.814054199960083,None,13.814054199960083,None,space,0.28764090000186116,13.814054199960083,None,,,,,,,,,,,,,,,,,,,,,,,,,,,,,,,,,,,,,,,,,,,,,,,,,,,,,,,,,,,,,,001,2021_Feb_17_1645,GuessTheSound,2020.2.10,59.94607250730313,
,,,,,,,,,,,,,,,,,,,,,,,,,,,,,,,,,,,,,,,,,,,,14.130822199978866,None,space,5.080026099923998,14.130822199978866,None,,,,,,,,,,,,,,,,,,,,,,,,,,,,,,,,,,,,,,,,,,,,,,,,,,,,,,,,001,2021_Feb_17_1645,GuessTheSound,2020.2.10,59.94607250730313,
,,,,,,,,,,,,,,,,,,,,,,,,,,,,,,,,,,,,,,,,,,,,,,,,,,14.130822199978866,None,19.230400300002657,None,19.230400300002657,None,space,2.6499151999596506,19.230400300002657,None,,,,,,,,,,,,,,,,,,,,,,,,,,,,,,,,,,,,,,,,,,,,,,001,2021_Feb_17_1645,GuessTheSound,2020.2.10,59.94607250730313,
Practice/Seagull_A.wav,2,3,NEW,0,0,0,0,,,,,,,,,,,,,,,,,,,,,,,,,,,,,,,,,,,,,,,,,,,,,,,,,,,,,21.9815152999945,24.246427500038408,21.981125520006753,None,21.9815152999945,24.246427500038408,3,1,9.533354199957103,24.26914560003206,None,24.26914560003206,None,24.26914560003206,None,24.26914560003206,None,24.26914560003206,None,33.84319629997481,None,,,,,,,,,,,,,,,,,,,,,,,,,001,2021_Feb_17_1645,GuessTheSound,2020.2.10,59.94607250730313,
Practice/Skid_B.wav,2,3,NEW,0,1,1,1,,,,,,,,,,,,,,,,,,,,,,,,,,,,,,,,,,,,,,,,,,,,,,,,,,,,,34.86860139993951,None,34.86338893997018,None,34.86860139993951,None,3,1,1.7968654999276623,36.9805680999998,None,36.9805680999998,None,36.9805680999998,None,36.9805680999998,None,36.9805680999998,None,38.798090999946,None,,,,,,,,,,,,,,,,,,,,,,,,,001,2021_Feb_17_1645,GuessTheSound,2020.2.10,59.94607250730313,
Practice/Seagull_A.wav,1,1,OLD,0,2,2,2,,,,,,,,,,,,,,,,,,,,,,,,,,,,,,,,,,,,,,,,,,,,,,,,,,,,,39.82733719993848,42.09652100002859,39.830093339993624,None,39.82733719993848,42.09652100002859,1,1,1.2416011999594048,42.1420493000187,None,42.1420493000187,None,42.1420493000187,None,42.1420493000187,None,42.1420493000187,None,43.413396000047214,None,,,,,,,,,,,,,,,,,,,,,,,,,001,2021_Feb_17_1645,GuessTheSound,2020.2.10,59.94607250730313,
Practice/Gargle_A.wav,2,3,NEW,0,3,3,3,,,,,,,,,,,,,,,,,,,,,,,,,,,,,,,,,,,,,,,,,,,,,,,,,,,,,44.456311699934304,None,44.44677566000028,None,44.456311699934304,None,3,1,0.8040753999957815,46.76053650001995,None,46.76053650001995,None,46.76053650001995,None,46.76053650001995,None,46.76053650001995,None,47.58272810000926,None,,,,,,,,,,,,,,,,,,,,,,,,,001,2021_Feb_17_1645,GuessTheSound,2020.2.10,59.94607250730313,
Practice/Gargle_B.wav,2,2,SIMILAR,0,4,4,4,,,,,,,,,,,,,,,,,,,,,,,,,,,,,,,,,,,,,,,,,,,,,,,,,,,,,48.6340236000251,None,48.630496959981976,None,48.6340236000251,None,2,1,0.5802399999229237,50.68150780000724,None,50.68150780000724,None,50.68150780000724,None,50.68150780000724,None,50.68150780000724,None,51.28066950000357,None,,,,,,,,,,,,,,,,,,,,,,,,,001,2021_Feb_17_1645,GuessTheSound,2020.2.10,59.94607250730313,
,,,,,,,,,,,,,,,,,,,,,,,,,,,,,,,,,,,,,,,,,,,,,,,,,,,,,,,,,,,,,,,,,,,,,,,,,,,,,,,,,52.281533899949864,None,space,4.024117499939166,52.281533899949864,None,,,,,,,,,,,,,,,,,,,001,2021_Feb_17_1645,GuessTheSound,2020.2.10,59.94607250730313,
Initial/Repeat/Buzz.wav,2,3,NEW,,,,,0,0,0,0,,,,,,,,,,,,,,,,,,,,,,,,,,,,,,,,,,,,,,,,,,,,,,,,,,,,,,,,,,,,,,,,,,,,,,,,,,,,52.281533899949864,None,56.40737429994624,None,57.86349283994642,None,57.875083199935034,None,57.875083199935034,None,60.18287399993278,None,3,1,3.552541199955158,60.18287399993278,None,,001,2021_Feb_17_1645,GuessTheSound,2020.2.10,59.94607250730313,
Test/Lures/Chime_B.wav,2,3,NEW,,,,,0,1,1,1,,,,,,,,,,,,,,,,,,,,,,,,,,,,,,,,,,,,,,,,,,,,,,,,,,,,,,,,,,,,,,,,,,,,,,,,,,,,,,63.765271899988875,None,65.29661234000233,None,65.3005232999567,None,65.3005232999567,None,67.61418939998839,None,3,1,0.759669900056906,67.61418939998839,None,,001,2021_Feb_17_1645,GuessTheSound,2020.2.10,59.94607250730313,
Initial/NoRepeat/Thunder_A.wav,2,3,NEW,,,,,0,2,2,2,,,,,,,,,,,,,,,,,,,,,,,,,,,,,,,,,,,,,,,,,,,,,,,,,,,,,,,,,,,,,,,,,,,,,,,,,,,,,,68.39636390004307,None,69.91337334001437,None,69.92034970002715,None,69.92034970002715,None,72.23071449995041,None,3,1,0.33544409996829927,72.23071449995041,None,,001,2021_Feb_17_1645,GuessTheSound,2020.2.10,59.94607250730313,
Initial/NoRepeat/Toilet_B.wav,2,3,NEW,,,,,0,3,3,3,,,,,,,,,,,,,,,,,,,,,,,,,,,,,,,,,,,,,,,,,,,,,,,,,,,,,,,,,,,,,,,,,,,,,,,,,,,,,,72.59726019995287,None,74.11339913993143,None,74.11874099995475,None,74.11874099995475,None,76.43052970001008,None,3,1,0.5055276999482885,76.43052970001008,None,,001,2021_Feb_17_1645,GuessTheSound,2020.2.10,59.94607250730313,
Test/Foils/Typing.wav,2,3,NEW,,,,,0,4,4,4,,,,,,,,,,,,,,,,,,,,,,,,,,,,,,,,,,,,,,,,,,,,,,,,,,,,,,,,,,,,,,,,,,,,,,,,,,,,,,76.9662145000184,None,78.4964572399389,None,78.49423289997503,None,78.49423289997503,None,80.79734709998593,None,3,1,0.6478433000156656,80.79734709998593,None,,001,2021_Feb_17_1645,GuessTheSound,2020.2.10,59.94607250730313,
Test/Foils/DialTone.wav,2,3,NEW,,,,,0,5,5,5,,,,,,,,,,,,,,,,,,,,,,,,,,,,,,,,,,,,,,,,,,,,,,,,,,,,,,,,,,,,,,,,,,,,,,,,,,,,,,81.46432160004042,None,83.01301265993389,None,83.00730099994689,None,83.00730099994689,None,85.31377879995853,None,3,1,0.43028849991969764,85.31377879995853,None,,001,2021_Feb_17_1645,GuessTheSound,2020.2.10,59.94607250730313,
Initial/Repeat/Pour.wav,2,3,NEW,,,,,0,6,6,6,,,,,,,,,,,,,,,,,,,,,,,,,,,,,,,,,,,,,,,,,,,,,,,,,,,,,,,,,,,,,,,,,,,,,,,,,,,,,,85.76309240004048,None,87.29631535996451,None,87.29633499996271,None,87.29633499996271,None,89.59710350004025,None,3,1,0.32614909997209907,89.59710350004025,None,,001,2021_Feb_17_1645,GuessTheSound,2020.2.10,59.94607250730313,
Initial/NoRepeat/Sleighbells_B.wav,2,3,NEW,,,,,0,7,7,7,,,,,,,,,,,,,,,,,,,,,,,,,,,,,,,,,,,,,,,,,,,,,,,,,,,,,,,,,,,,,,,,,,,,,,,,,,,,,,89.94745019997936,None,91.49632976002759,None,91.49085409997497,None,91.49085409997497,None,93.79715689993463,None,3,1,0.3244035999523476,93.79715689993463,None,,001,2021_Feb_17_1645,GuessTheSound,2020.2.10,59.94607250730313,
Initial/Repeat/Buzz.wav,1,1,OLD,,,,,0,8,8,8,,,,,,,,,,,,,,,,,,,,,,,,,,,,,,,,,,,,,,,,,,,,,,,,,,,,,,,,,,,,,,,,,,,,,,,,,,,,,,94.14914300001692,None,95.67952044003178,None,95.67489300004672,None,95.67489300004672,None,97.98033479996957,None,1,1,0.8570934999734163,97.98033479996957,None,,001,2021_Feb_17_1645,GuessTheSound,2020.2.10,59.94607250730313,
Initial/NoRepeat/Baby_B.wav,2,3,NEW,,,,,0,9,9,9,,,,,,,,,,,,,,,,,,,,,,,,,,,,,,,,,,,,,,,,,,,,,,,,,,,,,,,,,,,,,,,,,,,,,,,,,,,,,,98.86361470003612,None,100.39517103994731,None,100.40033950004727,None,100.40033950004727,None,102.71268999995664,None,3,1,0.571286000078544,102.71268999995664,None,,001,2021_Feb_17_1645,GuessTheSound,2020.2.10,59.94607250730313,
Initial/Doubled/Bubbles_A.wav,2,3,NEW,,,,,0,10,10,10,,,,,,,,,,,,,,,,,,,,,,,,,,,,,,,,,,,,,,,,,,,,,,,,,,,,,,,,,,,,,,,,,,,,,,,,,,,,,,103.31211679999251,None,104.82884604004212,None,104.8288903000066,None,104.8288903000066,None,107.13038869993761,None,3,1,0.4516044999472797,107.13038869993761,None,,001,2021_Feb_17_1645,GuessTheSound,2020.2.10,59.94607250730313,
Initial/NoRepeat/Thunder_A.wav,1,1,OLD,,,,,0,11,11,11,,,,,,,,,,,,,,,,,,,,,,,,,,,,,,,,,,,,,,,,,,,,,,,,,,,,,,,,,,,,,,,,,,,,,,,,,,,,,,107.59776199993212,None,109.11290511999978,None,109.12277719995473,None,109.12277719995473,None,111.43015989998821,None,1,1,0.41276200010906905,111.43015989998821,None,,001,2021_Feb_17_1645,GuessTheSound,2020.2.10,59.94607250730313,
Test/Foils/Typing.wav,1,1,OLD,,,,,0,12,12,12,,,,,,,,,,,,,,,,,,,,,,,,,,,,,,,,,,,,,,,,,,,,,,,,,,,,,,,,,,,,,,,,,,,,,,,,,,,,,,111.8637396999402,None,113.37939022002975,None,113.38573470001575,None,113.38573470001575,None,115.69710460002534,None,1,1,0.35817370004951954,115.69710460002534,None,,001,2021_Feb_17_1645,GuessTheSound,2020.2.10,59.94607250730313,
Initial/Doubled/Chime_A.wav,2,2,SIMILAR,,,,,0,13,13,13,,,,,,,,,,,,,,,,,,,,,,,,,,,,,,,,,,,,,,,,,,,,,,,,,,,,,,,,,,,,,,,,,,,,,,,,,,,,,,116.07980960002169,None,117.59596634001937,None,117.60521690000314,None,117.60521690000314,None,119.91363840003032,None,3,0,1.24131790001411,119.91363840003032,None,,001,2021_Feb_17_1645,GuessTheSound,2020.2.10,59.94607250730313,
Test/Foils/DialTone.wav,1,1,OLD,,,,,0,14,14,14,,,,,,,,,,,,,,,,,,,,,,,,,,,,,,,,,,,,,,,,,,,,,,,,,,,,,,,,,,,,,,,,,,,,,,,,,,,,,,121.18065650004428,None,122.71285323994235,None,122.70609370002057,None,122.70609370002057,None,125.01360509998631,None,1,1,0.4376012000720948,125.01360509998631,None,,001,2021_Feb_17_1645,GuessTheSound,2020.2.10,59.94607250730313,
Initial/Doubled/Writing_A.wav,2,3,NEW,,,,,0,15,15,15,,,,,,,,,,,,,,,,,,,,,,,,,,,,,,,,,,,,,,,,,,,,,,,,,,,,,,,,,,,,,,,,,,,,,,,,,,,,,,125.4793556999648,None,126.99618543996476,None,127.00223029998597,None,127.00223029998597,None,129.31363109999802,None,3,1,0.3478252000641078,129.31363109999802,None,,001,2021_Feb_17_1645,GuessTheSound,2020.2.10,59.94607250730313,
Initial/NoRepeat/Faucet_A.wav,2,3,NEW,,,,,0,16,16,16,,,,,,,,,,,,,,,,,,,,,,,,,,,,,,,,,,,,,,,,,,,,,,,,,,,,,,,,,,,,,,,,,,,,,,,,,,,,,,129.67927910003345,None,131.21245845997473,None,131.21010889997706,None,131.21010889997706,None,133.51328449998982,None,3,1,0.21912550006527454,133.51328449998982,None,,001,2021_Feb_17_1645,GuessTheSound,2020.2.10,59.94607250730313,
Initial/NoRepeat/Toilet_B.wav,1,1,OLD,,,,,0,17,17,17,,,,,,,,,,,,,,,,,,,,,,,,,,,,,,,,,,,,,,,,,,,,,,,,,,,,,,,,,,,,,,,,,,,,,,,,,,,,,,133.76236749999225,None,135.26274261994985,None,135.2739551999839,None,135.2739551999839,None,137.58021669997834,None,1,1,0.3216029000468552,137.58021669997834,None,,001,2021_Feb_17_1645,GuessTheSound,2020.2.10,59.94607250730313,
Pour_C.wav,2,2,SIMILAR,,,,,0,18,18,18,,,,,,,,,,,,,,,,,,,,,,,,,,,,,,,,,,,,,,,,,,,,,,,,,,,,,,,,,,,,,,,,,,,,,,,,,,,,,,137.92898209998384,None,139.44571054002733,None,139.452081299969,None,139.452081299969,None,141.76319860003423,None,3,0,0.5124085999559611,141.76319860003423,None,,001,2021_Feb_17_1645,GuessTheSound,2020.2.10,59.94607250730313,
Laugh_D.wav,2,3,NEW,,,,,0,19,19,19,,,,,,,,,,,,,,,,,,,,,,,,,,,,,,,,,,,,,,,,,,,,,,,,,,,,,,,,,,,,,,,,,,,,,,,,,,,,,,142.29801070003305,None,143.8292146399384,None,143.823927899939,None,143.823927899939,None,146.12966059998143,None,3,1,0.7379992000060156,146.12966059998143,None,,001,2021_Feb_17_1645,GuessTheSound,2020.2.10,59.94607250730313,
Initial/NoRepeat/Sleighbells_B.wav,1,1,OLD,,,,,0,20,20,20,,,,,,,,,,,,,,,,,,,,,,,,,,,,,,,,,,,,,,,,,,,,,,,,,,,,,,,,,,,,,,,,,,,,,,,,,,,,,,146.8955888999626,None,148.41245934003962,None,148.40673579997383,None,148.40673579997383,None,150.7135527000064,None,3,0,0.8680898000020534,150.7135527000064,None,,001,2021_Feb_17_1645,GuessTheSound,2020.2.10,59.94607250730313,
Initial/Doubled/Bubbles_A.wav,1,1,OLD,,,,,0,21,21,21,,,,,,,,,,,,,,,,,,,,,,,,,,,,,,,,,,,,,,,,,,,,,,,,,,,,,,,,,,,,,,,,,,,,,,,,,,,,,,151.59618370002136,None,153.11239773998966,None,153.1087354000192,None,153.1087354000192,None,155.41339899995364,None,3,0,0.2897426999406889,155.41339899995364,None,,001,2021_Feb_17_1645,GuessTheSound,2020.2.10,59.94607250730313,
Initial/Repeat/Buzz.wav,1,1,OLD,,,,,0,22,22,22,,,,,,,,,,,,,,,,,,,,,,,,,,,,,,,,,,,,,,,,,,,,,,,,,,,,,,,,,,,,,,,,,,,,,,,,,,,,,,155.72875719994772,None,157.22920581999932,None,157.24036169995088,None,157.24036169995088,None,159.54651519993786,None,1,1,0.15136219991836697,159.54651519993786,None,,001,2021_Feb_17_1645,GuessTheSound,2020.2.10,59.94607250730313,
Baby_A.wav,2,2,SIMILAR,,,,,0,23,23,23,,,,,,,,,,,,,,,,,,,,,,,,,,,,,,,,,,,,,,,,,,,,,,,,,,,,,,,,,,,,,,,,,,,,,,,,,,,,,,159.71357739996165,None,161.24452973993027,None,161.25412159995176,None,161.25412159995176,None,163.56171909999102,None,2,1,1.343649800051935,163.56171909999102,None,,001,2021_Feb_17_1645,GuessTheSound,2020.2.10,59.94607250730313,
Initial/Doubled/Writing_A.wav,1,1,OLD,,,,,0,24,24,24,,,,,,,,,,,,,,,,,,,,,,,,,,,,,,,,,,,,,,,,,,,,,,,,,,,,,,,,,,,,,,,,,,,,,,,,,,,,,,164.92865989997517,None,166.44576613998504,None,166.4410495000193,None,166.4410495000193,None,168.74624300003052,None,1,1,0.3811702999519184,168.74624300003052,None,,001,2021_Feb_17_1645,GuessTheSound,2020.2.10,59.94607250730313,
Initial/Doubled/Cough_A.wav,2,3,NEW,,,,,0,25,25,25,,,,,,,,,,,,,,,,,,,,,,,,,,,,,,,,,,,,,,,,,,,,,,,,,,,,,,,,,,,,,,,,,,,,,,,,,,,,,,169.14678920002189,None,170.67873864001592,None,170.6764516000403,None,170.6764516000403,None,172.37968160002492,None,3,1,0.3583240000298247,172.37968160002492,None,,001,2021_Feb_17_1645,GuessTheSound,2020.2.10,59.94607250730313,
Test/Foils/DialTone.wav,1,1,OLD,,,,,0,26,26,26,,,,,,,,,,,,,,,,,,,,,,,,,,,,,,,,,,,,,,,,,,,,,,,,,,,,,,,,,,,,,,,,,,,,,,,,,,,,,,172.76369940000586,None,174.27874061999609,None,174.28533600002993,None,174.28533600002993,None,176.59624430001713,None,1,1,0.27019329997710884,176.59624430001713,None,,001,2021_Feb_17_1645,GuessTheSound,2020.2.10,59.94607250730313,
Test/Lures/Guitar_B.wav,2,3,NEW,,,,,0,27,27,27,,,,,,,,,,,,,,,,,,,,,,,,,,,,,,,,,,,,,,,,,,,,,,,,,,,,,,,,,,,,,,,,,,,,,,,,,,,,,,176.8950482000364,None,178.41229773997327,None,178.41896409995388,None,178.41896409995388,None,180.72949249995872,None,3,1,0.24494060000870377,180.72949249995872,None,,001,2021_Feb_17_1645,GuessTheSound,2020.2.10,59.94607250730313,
Chime_C.wav,2,2,SIMILAR,,,,,0,28,28,28,,,,,,,,,,,,,,,,,,,,,,,,,,,,,,,,,,,,,,,,,,,,,,,,,,,,,,,,,,,,,,,,,,,,,,,,,,,,,,180.9952353000408,None,182.5120762400096,None,182.5111520999344,None,182.5111520999344,None,184.8127097999677,None,2,1,0.5350116000045091,184.8127097999677,None,,001,2021_Feb_17_1645,GuessTheSound,2020.2.10,59.94607250730313,
Initial/Repeat/IceDrop.wav,2,3,NEW,,,,,0,29,29,29,,,,,,,,,,,,,,,,,,,,,,,,,,,,,,,,,,,,,,,,,,,,,,,,,,,,,,,,,,,,,,,,,,,,,,,,,,,,,,185.36265369993635,None,186.87864453995132,None,186.87389169994276,None,186.87389169994276,None,189.179258499993,None,3,1,0.3934673999901861,189.179258499993,None,,001,2021_Feb_17_1645,GuessTheSound,2020.2.10,59.94607250730313,
Test/Foils/Typing.wav,1,1,OLD,,,,,0,30,30,30,,,,,,,,,,,,,,,,,,,,,,,,,,,,,,,,,,,,,,,,,,,,,,,,,,,,,,,,,,,,,,,,,,,,,,,,,,,,,,189.59590610000305,None,191.11209864004047,None,191.1052239999408,None,191.1052239999408,None,193.4127447999781,None,1,1,0.4295949999941513,193.4127447999781,None,,001,2021_Feb_17_1645,GuessTheSound,2020.2.10,59.94607250730313,
Bird_C.wav,2,3,NEW,,,,,0,31,31,31,,,,,,,,,,,,,,,,,,,,,,,,,,,,,,,,,,,,,,,,,,,,,,,,,,,,,,,,,,,,,,,,,,,,,,,,,,,,,,193.8633629999822,None,195.37871021997415,None,195.38732360000722,None,195.38732360000722,None,197.12936230003834,None,3,1,0.39936249994207174,197.12936230003834,None,,001,2021_Feb_17_1645,GuessTheSound,2020.2.10,59.94607250730313,
Initial/NoRepeat/Thunder_A.wav,1,1,OLD,,,,,0,32,32,32,,,,,,,,,,,,,,,,,,,,,,,,,,,,,,,,,,,,,,,,,,,,,,,,,,,,,,,,,,,,,,,,,,,,,,,,,,,,,,197.54695819993503,None,199.0621460199938,None,199.06885929999407,None,199.06885929999407,None,201.3791932000313,None,1,1,0.04172769992146641,201.3791932000313,None,,001,2021_Feb_17_1645,GuessTheSound,2020.2.10,59.94607250730313,
Initial/NoRepeat/Faucet_A.wav,1,1,OLD,,,,,0,33,33,33,,,,,,,,,,,,,,,,,,,,,,,,,,,,,,,,,,,,,,,,,,,,,,,,,,,,,,,,,,,,,,,,,,,,,,,,,,,,,,201.44601590000093,None,202.94528232001466,None,202.9539197999984,None,202.9539197999984,None,205.26287460001186,None,1,1,0.3852825000649318,205.26287460001186,None,,001,2021_Feb_17_1645,GuessTheSound,2020.2.10,59.94607250730313,
Initial/NoRepeat/Toilet_B.wav,1,1,OLD,,,,,0,34,34,34,,,,,,,,,,,,,,,,,,,,,,,,,,,,,,,,,,,,,,,,,,,,,,,,,,,,,,,,,,,,,,,,,,,,,,,,,,,,,,205.67951069993433,None,207.19529193998312,None,207.1920788999414,None,207.1920788999414,None,209.49601879995316,None,1,1,0.32803469989448786,209.49601879995316,None,,001,2021_Feb_17_1645,GuessTheSound,2020.2.10,59.94607250730313,
Initial/Doubled/Laugh_A.wav,2,2,SIMILAR,,,,,0,35,35,35,,,,,,,,,,,,,,,,,,,,,,,,,,,,,,,,,,,,,,,,,,,,,,,,,,,,,,,,,,,,,,,,,,,,,,,,,,,,,,209.84491250000428,None,211.37841355995042,None,211.38519479997922,None,211.38519479997922,None,213.69593429996166,None,2,1,0.5999811999499798,213.69593429996166,None,,001,2021_Feb_17_1645,GuessTheSound,2020.2.10,59.94607250730313,
Initial/Doubled/Bubbles_A.wav,1,1,OLD,,,,,0,36,36,36,,,,,,,,,,,,,,,,,,,,,,,,,,,,,,,,,,,,,,,,,,,,,,,,,,,,,,,,,,,,,,,,,,,,,,,,,,,,,,214.31164720002562,None,215.81184031999436,None,215.81485890003387,None,215.81485890003387,None,218.1127505999757,None,3,0,0.7868697000667453,218.1127505999757,None,,001,2021_Feb_17_1645,GuessTheSound,2020.2.10,59.94607250730313,
Initial/Doubled/Chicken_A.wav,2,3,NEW,,,,,0,37,37,37,,,,,,,,,,,,,,,,,,,,,,,,,,,,,,,,,,,,,,,,,,,,,,,,,,,,,,,,,,,,,,,,,,,,,,,,,,,,,,218.92843700002413,None,220.44492283996658,None,220.45269569999073,None,220.45269569999073,None,222.12918759998865,None,3,1,0.5423188999993727,222.12918759998865,None,,001,2021_Feb_17_1645,GuessTheSound,2020.2.10,59.94607250730313,
Pour_D.wav,2,2,SIMILAR,,,,,0,38,38,38,,,,,,,,,,,,,,,,,,,,,,,,,,,,,,,,,,,,,,,,,,,,,,,,,,,,,,,,,,,,,,,,,,,,,,,,,,,,,,222.6956380000338,None,224.2117431399878,None,224.21100599993952,None,224.21100599993952,None,226.51264560001437,None,2,1,1.5684728999622166,226.51264560001437,None,,001,2021_Feb_17_1645,GuessTheSound,2020.2.10,59.94607250730313,
Test/Lures/Guitar_B.wav,1,1,OLD,,,,,0,39,39,39,,,,,,,,,,,,,,,,,,,,,,,,,,,,,,,,,,,,,,,,,,,,,,,,,,,,,,,,,,,,,,,,,,,,,,,,,,,,,,228.09883969998918,None,229.61170132003025,None,229.62035580002703,None,229.62035580002703,None,231.92914310004562,None,1,1,0.3796285999706015,231.92914310004562,None,,001,2021_Feb_17_1645,GuessTheSound,2020.2.10,59.94607250730313,
Initial/NoRepeat/Sleighbells_B.wav,1,1,OLD,,,,,0,40,40,40,,,,,,,,,,,,,,,,,,,,,,,,,,,,,,,,,,,,,,,,,,,,,,,,,,,,,,,,,,,,,,,,,,,,,,,,,,,,,,232.32806279999204,None,233.82828012002864,None,233.83285999996588,None,233.83285999996588,None,236.14592409995385,None,3,0,0.22971009998582304,236.14592409995385,None,,001,2021_Feb_17_1645,GuessTheSound,2020.2.10,59.94607250730313,
Initial/Repeat/Airplane_B.wav,2,3,NEW,,,,,0,41,41,41,,,,,,,,,,,,,,,,,,,,,,,,,,,,,,,,,,,,,,,,,,,,,,,,,,,,,,,,,,,,,,,,,,,,,,,,,,,,,,236.39549230004195,None,237.91152684004044,None,237.91502880002372,None,237.91502880002372,None,240.22892060002778,None,1,0,0.42825490003451705,240.22892060002778,None,,001,2021_Feb_17_1645,GuessTheSound,2020.2.10,59.94607250730313,
,,,,,,,,,,,,,,,,,,,,,,,,,,,,,,,,,,,,,,,,,,,,,,,,,,,,,,,,,,,,,,,,,,,,,,,,,,,,,,,,,,,,,,,,,240.67980459996033,None,242.22792216002708,None,242.21859389997553,None,242.21859389997553,None,,,,,,,,,,,,,,
