File,Correct,SoundFile,Correct2,Type,trials_2.thisRepN,trials_2.thisTrialN,trials_2.thisN,trials_2.thisIndex,PracticeTrials.thisRepN,PracticeTrials.thisTrialN,PracticeTrials.thisN,PracticeTrials.thisIndex,trials.thisRepN,trials.thisTrialN,trials.thisN,trials.thisIndex,InstructionTxt.started,InstructionTxt.stopped,WelcomContinue.started,WelcomContinue.stopped,VolumeBeginTxt.started,VolumeBeginTxt.stopped,VolumeContinueKey.keys,VolumeContinueKey.rt,VolumeContinueKey.started,VolumeContinueKey.stopped,text.started,text.stopped,Music.started,Music.stopped,AdjustContinue.started,AdjustContinue.stopped,HeadphoneCheckBeing.started,HeadphoneCheckBeing.stopped,HeadphoneContinue.started,HeadphoneContinue.stopped,HeadphoneContinueKey.keys,HeadphoneContinueKey.rt,HeadphoneContinueKey.started,HeadphoneContinueKey.stopped,CheckSound.started,CheckSound.stopped,QuestionTxt.started,QuestionTxt.stopped,CheckTrial.started,CheckTrial.stopped,CrossHeadphone.started,CrossHeadphone.stopped,CheckResp.keys,CheckResp.corr,CheckResp.rt,CheckResp.started,CheckResp.stopped,FeedbackTxt.started,FeedbackTxt.stopped,WelcomeTxt1.started,WelcomeTxt1.stopped,ContinueKey1.started,ContinueKey1.stopped,ContinueResp.keys,ContinueResp.rt,ContinueResp.started,ContinueResp.stopped,Welcome2Txt.started,Welcome2Txt.stopped,Wel2ContinueKey.keys,Wel2ContinueKey.rt,Wel2ContinueKey.started,Wel2ContinueKey.stopped,Continue2.started,Continue2.stopped,InstructionTxt2.started,InstructionTxt2.stopped,WelcomeContinue2.started,WelcomeContinue2.stopped,WelcomeContinueKey2.keys,WelcomeContinueKey2.rt,WelcomeContinueKey2.started,WelcomeContinueKey2.stopped,TrialNumber.started,TrialNumber.stopped,PracticeSound.started,PracticeSound.stopped,PracticeCross.started,PracticeCross.stopped,Practice_resp.keys,Practice_resp.corr,Practice_resp.rt,Practice_resp.started,Practice_resp.stopped,PracticeMssg.started,PracticeMssg.stopped,FeedbackCross.started,FeedbackCross.stopped,Continue.started,Continue.stopped,Options.started,Options.stopped,FeedbackMssg.started,FeedbackMssg.stopped,StartTxt.started,StartTxt.stopped,StartTast.keys,StartTast.rt,StartTast.started,StartTast.stopped,ContinueStart.started,ContinueStart.stopped,no_3.started,no_3.stopped,TargetSound.started,TargetSound.stopped,Cross.started,Cross.stopped,ItemNumber.started,ItemNumber.stopped,MSTQuestion.started,MSTQuestion.stopped,MSTResp.keys,MSTResp.corr,MSTResp.rt,MSTResp.started,MSTResp.stopped,participant,session,date,expName,psychopyVersion,frameRate,
,,,,,,,,,,,,,,,,,15.712556799990125,None,15.712556799990125,None,16.50361170002725,None,space,0.33600389992352575,16.50361170002725,None,,,,,,,,,,,,,,,,,,,,,,,,,,,,,,,,,,,,,,,,,,,,,,,,,,,,,,,,,,,,,,,,,,,,,,,,,,,,,,,,,,,,,,,,,,,,,,,,,,,001,2021_Feb_20_2348,GuessTheSound,2020.2.10,59.946467801396665,
,,,,,,,,,,,,,,,,,,,,,,,,,,,16.888911799993366,None,16.88697252008133,None,16.888911799993366,None,17.28679160005413,None,17.28679160005413,None,space,0.24960129999089986,17.28679160005413,None,,,,,,,,,,,,,,,,,,,,,,,,,,,,,,,,,,,,,,,,,,,,,,,,,,,,,,,,,,,,,,,,,,,,,,,,,,,,,,,,,,,,,001,2021_Feb_20_2348,GuessTheSound,2020.2.10,59.946467801396665,
Headphone/t2_1.wav,2,,,,0,0,0,2,,,,,,,,,,,,,,,,,,,,,,,,,,,,,,,,,17.62069310003426,None,22.1514905000804,None,17.62002729997039,22.168150300043635,17.62002729997039,22.168150300043635,3,0,0.9311611000448465,22.1514905000804,None,23.107887700083666,None,,,,,,,,,,,,,,,,,,,,,,,,,,,,,,,,,,,,,,,,,,,,,,,,,,,,,,,,,,,,,,,,,,,,,,001,2021_Feb_20_2348,GuessTheSound,2020.2.10,59.946467801396665,
Headphone/t3_1.wav,3,,,,0,1,1,4,,,,,,,,,,,,,,,,,,,,,,,,,,,,,,,,,24.118065460026266,None,28.658957300009206,None,24.123315799981356,28.658957300009206,24.123315799981356,28.658957300009206,2,0,0.07202139997389168,28.658957300009206,None,28.761692199972458,None,,,,,,,,,,,,,,,,,,,,,,,,,,,,,,,,,,,,,,,,,,,,,,,,,,,,,,,,,,,,,,,,,,,,,,001,2021_Feb_20_2348,GuessTheSound,2020.2.10,59.946467801396665,
Headphone/t3_2.wav,3,,,,0,2,2,5,,,,,,,,,,,,,,,,,,,,,,,,,,,,,,,,,29.808707080036402,None,34.31942539999727,None,29.80085700005293,34.33606540004257,29.80085700005293,34.33606540004257,2,0,0.9352331999689341,34.31942539999727,None,35.28600339998957,None,,,,,,,,,,,,,,,,,,,,,,,,,,,,,,,,,,,,,,,,,,,,,,,,,,,,,,,,,,,,,,,,,,,,,,001,2021_Feb_20_2348,GuessTheSound,2020.2.10,59.946467801396665,
Headphone/t1_1.wav,1,,,,0,3,3,0,,,,,,,,,,,,,,,,,,,,,,,,,,,,,,,,,36.30228242003359,None,40.836485699983314,None,36.30748840002343,40.85309109999798,36.30748840002343,40.85309109999798,2,0,0.8685366000281647,40.836485699983314,None,41.73584069998469,None,,,,,,,,,,,,,,,,,,,,,,,,,,,,,,,,,,,,,,,,,,,,,,,,,,,,,,,,,,,,,,,,,,,,,,001,2021_Feb_20_2348,GuessTheSound,2020.2.10,59.946467801396665,
Headphone/t1_2.wav,1,,,,0,4,4,1,,,,,,,,,,,,,,,,,,,,,,,,,,,,,,,,,42.76917118004058,None,47.286164100049064,None,42.76509470003657,47.30276190000586,42.76509470003657,47.30276190000586,2,0,0.517887800000608,47.286164100049064,None,47.81922960001975,None,,,,,,,,,,,,,,,,,,,,,,,,,,,,,,,,,,,,,,,,,,,,,,,,,,,,,,,,,,,,,,,,,,,,,,001,2021_Feb_20_2348,GuessTheSound,2020.2.10,59.946467801396665,
Headphone/t2_2.wav,2,,,,0,5,5,3,,,,,,,,,,,,,,,,,,,,,,,,,,,,,,,,,48.81895265998319,None,53.352660899981856,None,48.824685400002636,53.36927430005744,48.824685400002636,53.36927430005744,3,0,0.7304673999315128,53.352660899981856,None,54.102136600064114,None,,,,,,,,,,,,,,,,,,,,,,,,,,,,,,,,,,,,,,,,,,,,,,,,,,,,,,,,,,,,,,,,,,,,,,001,2021_Feb_20_2348,GuessTheSound,2020.2.10,59.946467801396665,
,,,,,,,,,,,,,,,,,,,,,,,,,,,,,,,,,,,,,,,,,,,,,,,,,,,,,,,,55.10329110000748,None,55.10329110000748,None,space,2.2323591000167653,55.10329110000748,None,,,,,,,,,,,,,,,,,,,,,,,,,,,,,,,,,,,,,,,,,,,,,,,,,,,,,,,,,,,,,,001,2021_Feb_20_2348,GuessTheSound,2020.2.10,59.946467801396665,
,,,,,,,,,,,,,,,,,,,,,,,,,,,,,,,,,,,,,,,,,,,,,,,,,,,,,,,,,,,,,,,,57.3535018999828,None,space,0.5682027000002563,57.3535018999828,None,,,,,,,,,,,,,,,,,,,,,,,,,,,,,,,,,,,,,,,,,,,,,,,,,,,,,,,,001,2021_Feb_20_2348,GuessTheSound,2020.2.10,59.946467801396665,
,,,,,,,,,,,,,,,,,,,,,,,,,,,,,,,,,,,,,,,,,,,,,,,,,,,,,,,,,,,,,,,,,,,,,,57.3535018999828,None,57.95308650005609,None,57.95308650005609,None,space,0.5520434998907149,57.95308650005609,None,,,,,,,,,,,,,,,,,,,,,,,,,,,,,,,,,,,,,,,,,,,,,,001,2021_Feb_20_2348,GuessTheSound,2020.2.10,59.946467801396665,
,2,Practice/Seagull_A.wav,3,NEW,,,,,0,0,0,0,,,,,,,,,,,,,,,,,,,,,,,,,,,,,,,,,,,,,,,,,,,,,,,,,,,,,,,,,,,,,,,,,,,,58.59290100005455,None,58.585837540077044,None,58.59290100005455,None,3,1,0.5179044000105932,60.871731300023384,None,60.871731300023384,None,60.871731300023384,None,60.871731300023384,None,60.871731300023384,None,61.41872900002636,None,,,,,,,,,,,,,,,,,,,,,,,,,001,2021_Feb_20_2348,GuessTheSound,2020.2.10,59.946467801396665,
,2,Practice/Skid_B.wav,3,NEW,,,,,0,1,1,1,,,,,,,,,,,,,,,,,,,,,,,,,,,,,,,,,,,,,,,,,,,,,,,,,,,,,,,,,,,,,,,,,,,,62.42010129999835,64.51890330004971,62.41915966002271,None,62.42010129999835,64.51890330004971,2,0,1.2910767999710515,64.53608140000142,None,64.53608140000142,None,64.53608140000142,None,64.53608140000142,None,64.53608140000142,None,65.86469930002932,None,,,,,,,,,,,,,,,,,,,,,,,,,001,2021_Feb_20_2348,GuessTheSound,2020.2.10,59.946467801396665,
,1,Practice/Seagull_A.wav,1,OLD,,,,,0,2,2,2,,,,,,,,,,,,,,,,,,,,,,,,,,,,,,,,,,,,,,,,,,,,,,,,,,,,,,,,,,,,,,,,,,,,66.87810370000079,69.14171330002137,66.87530096005648,None,66.87810370000079,69.14171330002137,2,0,0.7685857999604195,69.16545369999949,None,69.16545369999949,None,69.16545369999949,None,69.16545369999949,None,69.16545369999949,None,69.95223110006191,None,,,,,,,,,,,,,,,,,,,,,,,,,001,2021_Feb_20_2348,GuessTheSound,2020.2.10,59.946467801396665,
,2,Practice/Gargle_A.wav,3,NEW,,,,,0,3,3,3,,,,,,,,,,,,,,,,,,,,,,,,,,,,,,,,,,,,,,,,,,,,,,,,,,,,,,,,,,,,,,,,,,,,70.97896450001281,None,70.96915041997562,None,70.97896450001281,None,2,0,0.9244050000561401,73.25280620006379,None,73.25280620006379,None,73.25280620006379,None,73.25280620006379,None,73.25280620006379,None,74.20202860003337,None,,,,,,,,,,,,,,,,,,,,,,,,,001,2021_Feb_20_2348,GuessTheSound,2020.2.10,59.946467801396665,
,2,Practice/Gargle_B.wav,2,SIMILAR,,,,,0,4,4,4,,,,,,,,,,,,,,,,,,,,,,,,,,,,,,,,,,,,,,,,,,,,,,,,,,,,,,,,,,,,,,,,,,,,75.21782320004422,None,75.21863241998943,None,75.21782320004422,None,3,0,0.49858610006049275,77.27186320000328,None,77.27186320000328,None,77.27186320000328,None,77.27186320000328,None,77.27186320000328,None,77.80226000002585,None,,,,,,,,,,,,,,,,,,,,,,,,,001,2021_Feb_20_2348,GuessTheSound,2020.2.10,59.946467801396665,
,,,,,,,,,,,,,,,,,,,,,,,,,,,,,,,,,,,,,,,,,,,,,,,,,,,,,,,,,,,,,,,,,,,,,,,,,,,,,,,,,,,,,,,,,,,,,,,,,,,,,78.8027604999952,None,space,1.6778445000527427,78.8027604999952,None,,,,,,,,,,,,,,,,,,,001,2021_Feb_20_2348,GuessTheSound,2020.2.10,59.946467801396665,
,2,Initial/NoRepeat/Elephant_A.wav,3,NEW,,,,,,,,,0,0,0,0,,,,,,,,,,,,,,,,,,,,,,,,,,,,,,,,,,,,,,,,,,,,,,,,,,,,,,,,,,,,,,,,,,,,,,,,,,,,,,,,,,,,,,,,,,,78.8027604999952,None,80.54649480001535,None,82.03549272001254,None,82.03217100002803,None,82.03217100002803,None,85.08486619999167,None,3,1,0.0812074999557808,85.08486619999167,None,,001,2021_Feb_20_2348,GuessTheSound,2020.2.10,59.946467801396665,
,2,Initial/NoRepeat/Thunder_A.wav,3,NEW,,,,,,,,,0,1,1,1,,,,,,,,,,,,,,,,,,,,,,,,,,,,,,,,,,,,,,,,,,,,,,,,,,,,,,,,,,,,,,,,,,,,,,,,,,,,,,,,,,,,,,,,,,,,,85.1840701000765,None,86.70124452007002,None,86.69721560005564,None,86.69721560005564,None,89.68598990002647,None,3,1,3.7891911999322474,89.68598990002647,None,,001,2021_Feb_20_2348,GuessTheSound,2020.2.10,59.946467801396665,
,2,Test/Lures/Chime_B.wav,3,NEW,,,,,,,,,0,2,2,2,,,,,,,,,,,,,,,,,,,,,,,,,,,,,,,,,,,,,,,,,,,,,,,,,,,,,,,,,,,,,,,,,,,,,,,,,,,,,,,,,,,,,,,,,,,,,93.5020380000351,None,95.00176025999244,None,95.0042029999895,None,95.0042029999895,None,97.81937689997721,None,3,1,0.216200300026685,97.81937689997721,None,,001,2021_Feb_20_2348,GuessTheSound,2020.2.10,59.946467801396665,
,2,Initial/NoRepeat/Toilet_B.wav,3,NEW,,,,,,,,,0,3,3,3,,,,,,,,,,,,,,,,,,,,,,,,,,,,,,,,,,,,,,,,,,,,,,,,,,,,,,,,,,,,,,,,,,,,,,,,,,,,,,,,,,,,,,,,,,,,,98.0519996000221,None,99.55193216006737,None,99.55206060002092,None,99.55206060002092,None,102.46911890001502,None,3,1,0.3118252999847755,102.46911890001502,None,,001,2021_Feb_20_2348,GuessTheSound,2020.2.10,59.946467801396665,
,2,Test/Foils/Typing.wav,3,NEW,,,,,,,,,0,4,4,4,,,,,,,,,,,,,,,,,,,,,,,,,,,,,,,,,,,,,,,,,,,,,,,,,,,,,,,,,,,,,,,,,,,,,,,,,,,,,,,,,,,,,,,,,,,,,102.80167150008492,None,104.33495808003936,None,104.32970050000586,None,104.32970050000586,None,107.18626860005315,None,3,1,0.4347873000660911,107.18626860005315,None,,001,2021_Feb_20_2348,GuessTheSound,2020.2.10,59.946467801396665,
,2,Initial/Repeat/Pour.wav,3,NEW,,,,,,,,,0,5,5,5,,,,,,,,,,,,,,,,,,,,,,,,,,,,,,,,,,,,,,,,,,,,,,,,,,,,,,,,,,,,,,,,,,,,,,,,,,,,,,,,,,,,,,,,,,,,,107.65176250005607,None,109.1853512799833,None,109.18330230005085,None,109.18330230005085,None,111.75332610006444,None,3,1,0.18278699996881187,111.75332610006444,None,,001,2021_Feb_20_2348,GuessTheSound,2020.2.10,59.946467801396665,
,2,Initial/NoRepeat/Sleighbells_B.wav,3,NEW,,,,,,,,,0,6,6,6,,,,,,,,,,,,,,,,,,,,,,,,,,,,,,,,,,,,,,,,,,,,,,,,,,,,,,,,,,,,,,,,,,,,,,,,,,,,,,,,,,,,,,,,,,,,,111.95442419999745,None,113.48577642003073,None,113.49190200003795,None,113.49190200003795,None,115.91980849998072,None,3,1,0.3220750999171287,115.91980849998072,None,,001,2021_Feb_20_2348,GuessTheSound,2020.2.10,59.946467801396665,
,2,Initial/Repeat/Buzz.wav,3,NEW,,,,,,,,,0,7,7,7,,,,,,,,,,,,,,,,,,,,,,,,,,,,,,,,,,,,,,,,,,,,,,,,,,,,,,,,,,,,,,,,,,,,,,,,,,,,,,,,,,,,,,,,,,,,,116.27098000003025,None,117.80210512008051,None,117.81256930006202,None,117.81256930006202,None,120.11982660007197,None,3,1,0.3129763000179082,120.11982660007197,None,,001,2021_Feb_20_2348,GuessTheSound,2020.2.10,59.946467801396665,
,2,Baby_F.wav,3,NEW,,,,,,,,,0,8,8,8,,,,,,,,,,,,,,,,,,,,,,,,,,,,,,,,,,,,,,,,,,,,,,,,,,,,,,,,,,,,,,,,,,,,,,,,,,,,,,,,,,,,,,,,,,,,,120.45314850006253,None,121.98538881998974,None,121.99542450008448,None,121.99542450008448,None,123.26963120000437,None,3,1,1.0443130999337882,123.26963120000437,None,,001,2021_Feb_20_2348,GuessTheSound,2020.2.10,59.946467801396665,
,1,Initial/NoRepeat/Thunder_A.wav,1,OLD,,,,,,,,,0,9,9,9,,,,,,,,,,,,,,,,,,,,,,,,,,,,,,,,,,,,,,,,,,,,,,,,,,,,,,,,,,,,,,,,,,,,,,,,,,,,,,,,,,,,,,,,,,,,,124.33777570002712,None,125.86845572006422,None,125.87834060005844,None,125.87834060005844,None,128.8695608000271,None,3,0,0.2764615999767557,128.8695608000271,None,,001,2021_Feb_20_2348,GuessTheSound,2020.2.10,59.946467801396665,
,2,Initial/NoRepeat/Mosquito_B.wav,3,NEW,,,,,,,,,0,10,10,10,,,,,,,,,,,,,,,,,,,,,,,,,,,,,,,,,,,,,,,,,,,,,,,,,,,,,,,,,,,,,,,,,,,,,,,,,,,,,,,,,,,,,,,,,,,,,129.1701731000794,None,130.70213032006285,None,130.7117167999968,None,130.7117167999968,None,132.8531526000006,None,3,1,0.3765887999907136,132.8531526000006,None,,001,2021_Feb_20_2348,GuessTheSound,2020.2.10,59.946467801396665,
,2,Test/Foils/DialTone.wav,3,NEW,,,,,,,,,0,11,11,11,,,,,,,,,,,,,,,,,,,,,,,,,,,,,,,,,,,,,,,,,,,,,,,,,,,,,,,,,,,,,,,,,,,,,,,,,,,,,,,,,,,,,,,,,,,,,133.2534113000147,None,134.81894374007825,None,134.82130249997135,None,134.82130249997135,None,137.33599479997065,None,3,1,0.10607239999808371,137.33599479997065,None,,001,2021_Feb_20_2348,GuessTheSound,2020.2.10,59.946467801396665,
,2,Elephant_B.wav,2,SIMILAR,,,,,,,,,0,12,12,12,,,,,,,,,,,,,,,,,,,,,,,,,,,,,,,,,,,,,,,,,,,,,,,,,,,,,,,,,,,,,,,,,,,,,,,,,,,,,,,,,,,,,,,,,,,,,137.46978020004462,None,139.0023077800404,None,139.00145340000745,None,139.00145340000745,None,141.80295270006172,None,2,1,8.069858600036241,141.80295270006172,None,,001,2021_Feb_20_2348,GuessTheSound,2020.2.10,59.946467801396665,
,2,Initial/Doubled/Writing_A.wav,3,NEW,,,,,,,,,0,13,13,13,,,,,,,,,,,,,,,,,,,,,,,,,,,,,,,,,,,,,,,,,,,,,,,,,,,,,,,,,,,,,,,,,,,,,,,,,,,,,,,,,,,,,,,,,,,,,149.91071209998336,None,151.4351471200818,None,151.4426696000155,None,151.4426696000155,None,154.1358011000557,None,3,1,0.7530989000806585,154.1358011000557,None,,001,2021_Feb_20_2348,GuessTheSound,2020.2.10,59.946467801396665,
,2,Initial/NoRepeat/Faucet_A.wav,3,NEW,,,,,,,,,0,14,14,14,,,,,,,,,,,,,,,,,,,,,,,,,,,,,,,,,,,,,,,,,,,,,,,,,,,,,,,,,,,,,,,,,,,,,,,,,,,,,,,,,,,,,,,,,,,,,154.9262135999743,None,156.43451086003333,None,156.43440650007688,None,156.43440650007688,None,158.91922190005425,None,3,1,0.5465615000575781,158.91922190005425,None,,001,2021_Feb_20_2348,GuessTheSound,2020.2.10,59.946467801396665,
,1,Test/Foils/Typing.wav,1,OLD,,,,,,,,,0,15,15,15,,,,,,,,,,,,,,,,,,,,,,,,,,,,,,,,,,,,,,,,,,,,,,,,,,,,,,,,,,,,,,,,,,,,,,,,,,,,,,,,,,,,,,,,,,,,,159.48839720000979,None,161.00144176001194,None,161.0111985000549,None,161.0111985000549,None,163.86901909997687,None,3,0,0.7563794999150559,163.86901909997687,None,,001,2021_Feb_20_2348,GuessTheSound,2020.2.10,59.946467801396665,
,1,Initial/NoRepeat/Sleighbells_B.wav,1,OLD,,,,,,,,,0,16,16,16,,,,,,,,,,,,,,,,,,,,,,,,,,,,,,,,,,,,,,,,,,,,,,,,,,,,,,,,,,,,,,,,,,,,,,,,,,,,,,,,,,,,,,,,,,,,,164.6542519000359,None,166.1852446200093,None,166.1825638000155,None,166.1825638000155,None,168.6023754000198,None,3,0,0.4568012000527233,168.6023754000198,None,,001,2021_Feb_20_2348,GuessTheSound,2020.2.10,59.946467801396665,
,2,Test/Foils/Wind_B.wav,3,NEW,,,,,,,,,0,17,17,17,,,,,,,,,,,,,,,,,,,,,,,,,,,,,,,,,,,,,,,,,,,,,,,,,,,,,,,,,,,,,,,,,,,,,,,,,,,,,,,,,,,,,,,,,,,,,169.08461010002065,None,170.6514398000436,None,170.64759140007664,None,170.64759140007664,None,173.38597270008177,None,3,1,0.3285955999745056,173.38597270008177,None,,001,2021_Feb_20_2348,GuessTheSound,2020.2.10,59.946467801396665,
,1,Initial/NoRepeat/Toilet_B.wav,1,OLD,,,,,,,,,0,18,18,18,,,,,,,,,,,,,,,,,,,,,,,,,,,,,,,,,,,,,,,,,,,,,,,,,,,,,,,,,,,,,,,,,,,,,,,,,,,,,,,,,,,,,,,,,,,,,173.73654680000618,None,175.26821912003214,None,175.26359830005094,None,175.26359830005094,None,178.1856958999997,None,1,1,0.23894860001746565,178.1856958999997,None,,001,2021_Feb_20_2348,GuessTheSound,2020.2.10,59.946467801396665,
,2,Pour_C.wav,2,SIMILAR,,,,,,,,,0,19,19,19,,,,,,,,,,,,,,,,,,,,,,,,,,,,,,,,,,,,,,,,,,,,,,,,,,,,,,,,,,,,,,,,,,,,,,,,,,,,,,,,,,,,,,,,,,,,,178.45499150000978,None,179.9846241199877,None,179.9916429000441,None,179.9916429000441,None,183.0026415999746,None,2,1,0.5900318999774754,183.0026415999746,None,,001,2021_Feb_20_2348,GuessTheSound,2020.2.10,59.946467801396665,
,2,Initial/Doubled/Chime_A.wav,2,SIMILAR,,,,,,,,,0,20,20,20,,,,,,,,,,,,,,,,,,,,,,,,,,,,,,,,,,,,,,,,,,,,,,,,,,,,,,,,,,,,,,,,,,,,,,,,,,,,,,,,,,,,,,,,,,,,,183.61948340001982,None,185.16801898002157,None,185.16575140005443,None,185.16575140005443,None,188.00219340005424,None,2,1,0.2530204000649974,188.00219340005424,None,,001,2021_Feb_20_2348,GuessTheSound,2020.2.10,59.946467801396665,
,1,Initial/Repeat/Buzz.wav,1,OLD,,,,,,,,,0,21,21,21,,,,,,,,,,,,,,,,,,,,,,,,,,,,,,,,,,,,,,,,,,,,,,,,,,,,,,,,,,,,,,,,,,,,,,,,,,,,,,,,,,,,,,,,,,,,,188.27369459997863,None,189.80152731998822,None,189.79685550008435,None,189.79685550008435,None,192.10236230003648,None,1,1,0.3282261999556795,192.10236230003648,None,,001,2021_Feb_20_2348,GuessTheSound,2020.2.10,59.946467801396665,
,2,Writing_C.wav,2,SIMILAR,,,,,,,,,0,22,22,22,,,,,,,,,,,,,,,,,,,,,,,,,,,,,,,,,,,,,,,,,,,,,,,,,,,,,,,,,,,,,,,,,,,,,,,,,,,,,,,,,,,,,,,,,,,,,192.4508903999813,None,193.96806042005772,None,193.97713760007173,None,193.97713760007173,None,196.70228199998382,None,2,1,1.0244127999758348,196.70228199998382,None,,001,2021_Feb_20_2348,GuessTheSound,2020.2.10,59.946467801396665,
,1,Initial/NoRepeat/Mosquito_B.wav,1,OLD,,,,,,,,,0,23,23,23,,,,,,,,,,,,,,,,,,,,,,,,,,,,,,,,,,,,,,,,,,,,,,,,,,,,,,,,,,,,,,,,,,,,,,,,,,,,,,,,,,,,,,,,,,,,,197.7580235999776,None,199.28469371998216,None,199.28262319997884,None,199.28262319997884,None,201.43542780005373,None,1,1,0.3139058999950066,201.43542780005373,None,,001,2021_Feb_20_2348,GuessTheSound,2020.2.10,59.946467801396665,
,2,Initial/Doubled/Cough_A.wav,3,NEW,,,,,,,,,0,24,24,24,,,,,,,,,,,,,,,,,,,,,,,,,,,,,,,,,,,,,,,,,,,,,,,,,,,,,,,,,,,,,,,,,,,,,,,,,,,,,,,,,,,,,,,,,,,,,201.7686133000534,None,203.28452062006107,None,203.28329819999635,None,203.28329819999635,None,204.98525370005518,None,3,1,0.43854090000968426,204.98525370005518,None,,001,2021_Feb_20_2348,GuessTheSound,2020.2.10,59.946467801396665,
,1,Test/Foils/DialTone.wav,1,OLD,,,,,,,,,0,25,25,25,,,,,,,,,,,,,,,,,,,,,,,,,,,,,,,,,,,,,,,,,,,,,,,,,,,,,,,,,,,,,,,,,,,,,,,,,,,,,,,,,,,,,,,,,,,,,205.46076759998687,None,206.9676674599992,None,206.97899510001298,None,206.97899510001298,None,209.4852115000831,None,3,0,0.3163302999455482,209.4852115000831,None,,001,2021_Feb_20_2348,GuessTheSound,2020.2.10,59.946467801396665,
,2,Initial/NoRepeat/Puff_A.wav,3,NEW,,,,,,,,,0,26,26,26,,,,,,,,,,,,,,,,,,,,,,,,,,,,,,,,,,,,,,,,,,,,,,,,,,,,,,,,,,,,,,,,,,,,,,,,,,,,,,,,,,,,,,,,,,,,,209.81947019998915,None,211.35122102003078,None,211.3556041000411,None,211.3556041000411,None,213.0521903000772,None,3,1,0.2981564999790862,213.0521903000772,None,,001,2021_Feb_20_2348,GuessTheSound,2020.2.10,59.946467801396665,
,2,Test/Foils/Heartbeat.wav,3,NEW,,,,,,,,,0,27,27,27,,,,,,,,,,,,,,,,,,,,,,,,,,,,,,,,,,,,,,,,,,,,,,,,,,,,,,,,,,,,,,,,,,,,,,,,,,,,,,,,,,,,,,,,,,,,,213.3724521000404,None,214.90111721998545,None,214.91328680003062,None,214.91328680003062,None,217.31848390004598,None,3,1,0.28105879994109273,217.31848390004598,None,,001,2021_Feb_20_2348,GuessTheSound,2020.2.10,59.946467801396665,
,2,Initial/Repeat/IceDrop.wav,3,NEW,,,,,,,,,0,28,28,28,,,,,,,,,,,,,,,,,,,,,,,,,,,,,,,,,,,,,,,,,,,,,,,,,,,,,,,,,,,,,,,,,,,,,,,,,,,,,,,,,,,,,,,,,,,,,217.61983330000658,None,219.1511215200182,None,219.16122360003646,None,219.16122360003646,None,221.9185623000376,None,3,1,0.26194680004846305,221.9185623000376,None,,001,2021_Feb_20_2348,GuessTheSound,2020.2.10,59.946467801396665,
,2,Bird_D.wav,3,NEW,,,,,,,,,0,29,29,29,,,,,,,,,,,,,,,,,,,,,,,,,,,,,,,,,,,,,,,,,,,,,,,,,,,,,,,,,,,,,,,,,,,,,,,,,,,,,,,,,,,,,,,,,,,,,222.20714600000065,None,223.73438602003733,None,223.7386374999769,None,223.7386374999769,None,225.0850634999806,None,3,1,0.5849653999321163,225.0850634999806,None,,001,2021_Feb_20_2348,GuessTheSound,2020.2.10,59.946467801396665,
,2,Baby_E.wav,2,SIMILAR,,,,,,,,,0,30,30,30,,,,,,,,,,,,,,,,,,,,,,,,,,,,,,,,,,,,,,,,,,,,,,,,,,,,,,,,,,,,,,,,,,,,,,,,,,,,,,,,,,,,,,,,,,,,,225.68685080006253,None,227.21746162003836,None,227.223305099993,None,227.223305099993,None,228.76869880000595,None,2,1,1.0283666000468656,228.76869880000595,None,,001,2021_Feb_20_2348,GuessTheSound,2020.2.10,59.946467801396665,
,2,Faucet_B.wav,2,SIMILAR,,,,,,,,,0,31,31,31,,,,,,,,,,,,,,,,,,,,,,,,,,,,,,,,,,,,,,,,,,,,,,,,,,,,,,,,,,,,,,,,,,,,,,,,,,,,,,,,,,,,,,,,,,,,,229.8218421000056,None,231.3517115200404,None,231.35268820007332,None,231.35268820007332,None,234.15233710000757,None,2,1,0.7363858000608161,234.15233710000757,None,,001,2021_Feb_20_2348,GuessTheSound,2020.2.10,59.946467801396665,
,2,Initial/NoRepeat/Duck_A.wav,3,NEW,,,,,,,,,0,32,32,32,,,,,,,,,,,,,,,,,,,,,,,,,,,,,,,,,,,,,,,,,,,,,,,,,,,,,,,,,,,,,,,,,,,,,,,,,,,,,,,,,,,,,,,,,,,,,234.91998590005096,None,236.45088482000864,None,236.45098590000998,None,236.45098590000998,None,238.55185749998782,None,3,1,1.2828201000811532,238.55185749998782,None,,001,2021_Feb_20_2348,GuessTheSound,2020.2.10,59.946467801396665,
,2,Initial/Doubled/Laugh_A.wav,3,NEW,,,,,,,,,0,33,33,33,,,,,,,,,,,,,,,,,,,,,,,,,,,,,,,,,,,,,,,,,,,,,,,,,,,,,,,,,,,,,,,,,,,,,,,,,,,,,,,,,,,,,,,,,,,,,239.8573545999825,None,241.38441312003414,None,241.39161450008396,None,241.39161450008396,None,244.10191059997305,None,3,1,0.5392575999721885,244.10191059997305,None,,001,2021_Feb_20_2348,GuessTheSound,2020.2.10,59.946467801396665,
,1,Test/Foils/Wind_B.wav,1,OLD,,,,,,,,,0,34,34,34,,,,,,,,,,,,,,,,,,,,,,,,,,,,,,,,,,,,,,,,,,,,,,,,,,,,,,,,,,,,,,,,,,,,,,,,,,,,,,,,,,,,,,,,,,,,,244.67133899999317,None,246.2008422200335,None,246.19851929997094,None,246.19851929997094,None,248.93494050006848,None,1,1,0.3257599000353366,248.93494050006848,None,,001,2021_Feb_20_2348,GuessTheSound,2020.2.10,59.946467801396665,
,2,Initial/Doubled/Chicken_A.wav,3,NEW,,,,,,,,,0,35,35,35,,,,,,,,,,,,,,,,,,,,,,,,,,,,,,,,,,,,,,,,,,,,,,,,,,,,,,,,,,,,,,,,,,,,,,,,,,,,,,,,,,,,,,,,,,,,,249.28601460007485,None,250.81726742004975,None,250.81376649998128,None,250.81376649998128,None,252.50141440005973,None,3,1,0.6523641999810934,252.50141440005973,None,,001,2021_Feb_20_2348,GuessTheSound,2020.2.10,59.946467801396665,
,2,Test/Lures/Guitar_B.wav,3,NEW,,,,,,,,,0,36,36,36,,,,,,,,,,,,,,,,,,,,,,,,,,,,,,,,,,,,,,,,,,,,,,,,,,,,,,,,,,,,,,,,,,,,,,,,,,,,,,,,,,,,,,,,,,,,,253.17264130001422,None,254.70059291999786,None,254.703910500044,None,254.703910500044,None,257.0348918000236,None,3,1,0.33978420007042587,257.0348918000236,None,,001,2021_Feb_20_2348,GuessTheSound,2020.2.10,59.946467801396665,
,2,Initial/Repeat/Cello.wav,3,NEW,,,,,,,,,0,37,37,37,,,,,,,,,,,,,,,,,,,,,,,,,,,,,,,,,,,,,,,,,,,,,,,,,,,,,,,,,,,,,,,,,,,,,,,,,,,,,,,,,,,,,,,,,,,,,257.4066921999911,None,258.9507770799799,None,258.9465414000442,None,258.9465414000442,None,261.8515204000287,None,3,1,0.28319119999650866,261.8515204000287,None,,001,2021_Feb_20_2348,GuessTheSound,2020.2.10,59.946467801396665,
,1,Test/Foils/Heartbeat.wav,1,OLD,,,,,,,,,0,38,38,38,,,,,,,,,,,,,,,,,,,,,,,,,,,,,,,,,,,,,,,,,,,,,,,,,,,,,,,,,,,,,,,,,,,,,,,,,,,,,,,,,,,,,,,,,,,,,262.15484600001946,None,263.68400251998105,None,263.6803740999894,None,263.6803740999894,None,266.10151060007047,None,1,1,0.2504438000032678,266.10151060007047,None,,001,2021_Feb_20_2348,GuessTheSound,2020.2.10,59.946467801396665,
,2,Initial/Repeat/Airplane_B.wav,3,NEW,,,,,,,,,0,39,39,39,,,,,,,,,,,,,,,,,,,,,,,,,,,,,,,,,,,,,,,,,,,,,,,,,,,,,,,,,,,,,,,,,,,,,,,,,,,,,,,,,,,,,,,,,,,,,266.3715921000112,None,267.917072580033,None,267.9139551999979,None,267.9139551999979,None,270.5174085000763,None,3,1,0.3824112999718636,270.5174085000763,None,,001,2021_Feb_20_2348,GuessTheSound,2020.2.10,59.946467801396665,
,2,Cough_E.wav,2,SIMILAR,,,,,,,,,0,40,40,40,,,,,,,,,,,,,,,,,,,,,,,,,,,,,,,,,,,,,,,,,,,,,,,,,,,,,,,,,,,,,,,,,,,,,,,,,,,,,,,,,,,,,,,,,,,,,270.9178991999943,None,272.43408372001727,None,272.433972000028,None,272.433972000028,None,274.1677230000496,None,3,0,0.4153593999799341,274.1677230000496,None,,001,2021_Feb_20_2348,GuessTheSound,2020.2.10,59.946467801396665,
,2,Initial/Repeat/Trumpet_B.wav,3,NEW,,,,,,,,,0,41,41,41,,,,,,,,,,,,,,,,,,,,,,,,,,,,,,,,,,,,,,,,,,,,,,,,,,,,,,,,,,,,,,,,,,,,,,,,,,,,,,,,,,,,,,,,,,,,,274.6027073999867,None,276.15067767999136,None,276.15584030002356,None,276.15584030002356,None,278.45130580000114,None,3,1,0.2402218000497669,278.45130580000114,None,,001,2021_Feb_20_2348,GuessTheSound,2020.2.10,59.946467801396665,
,1,Initial/Repeat/IceDrop.wav,1,OLD,,,,,,,,,0,42,42,42,,,,,,,,,,,,,,,,,,,,,,,,,,,,,,,,,,,,,,,,,,,,,,,,,,,,,,,,,,,,,,,,,,,,,,,,,,,,,,,,,,,,,,,,,,,,,278.7186209000647,None,280.23362585997677,None,280.2378508000402,None,280.2378508000402,None,282.9844323999714,None,1,1,0.41260109993163496,282.9844323999714,None,,001,2021_Feb_20_2348,GuessTheSound,2020.2.10,59.946467801396665,
,2,Initial/Repeat/Sneeze_B.wav,3,NEW,,,,,,,,,0,43,43,43,,,,,,,,,,,,,,,,,,,,,,,,,,,,,,,,,,,,,,,,,,,,,,,,,,,,,,,,,,,,,,,,,,,,,,,,,,,,,,,,,,,,,,,,,,,,,283.41842530004214,None,284.9502946200548,None,284.9616032000631,None,284.9616032000631,None,286.18467720004264,None,3,1,0.5066664000041783,286.18467720004264,None,,001,2021_Feb_20_2348,GuessTheSound,2020.2.10,59.946467801396665,
,1,Initial/NoRepeat/Puff_A.wav,1,OLD,,,,,,,,,0,44,44,44,,,,,,,,,,,,,,,,,,,,,,,,,,,,,,,,,,,,,,,,,,,,,,,,,,,,,,,,,,,,,,,,,,,,,,,,,,,,,,,,,,,,,,,,,,,,,286.7212493000552,None,288.23355266000146,None,288.24151289998554,None,288.24151289998554,None,289.9342240000842,None,1,1,0.3146861999994144,289.9342240000842,None,,001,2021_Feb_20_2348,GuessTheSound,2020.2.10,59.946467801396665,
,2,Chick_A.wav,2,SIMILAR,,,,,,,,,0,45,45,45,,,,,,,,,,,,,,,,,,,,,,,,,,,,,,,,,,,,,,,,,,,,,,,,,,,,,,,,,,,,,,,,,,,,,,,,,,,,,,,,,,,,,,,,,,,,,290.2689215000719,None,291.8001426200383,None,291.80159360007383,None,291.80159360007383,None,293.51790560001973,None,2,1,0.6166458000661805,293.51790560001973,None,,001,2021_Feb_20_2348,GuessTheSound,2020.2.10,59.946467801396665,
,2,Snore_A.wav,3,NEW,,,,,,,,,0,46,46,46,,,,,,,,,,,,,,,,,,,,,,,,,,,,,,,,,,,,,,,,,,,,,,,,,,,,,,,,,,,,,,,,,,,,,,,,,,,,,,,,,,,,,,,,,,,,,294.1540415000636,None,295.6836640200811,None,295.69372350000776,None,295.69372350000776,None,298.45107040007133,None,3,1,0.5873726999852806,298.45107040007133,None,,001,2021_Feb_20_2348,GuessTheSound,2020.2.10,59.946467801396665,
,1,Test/Lures/Guitar_B.wav,1,OLD,,,,,,,,,0,47,47,47,,,,,,,,,,,,,,,,,,,,,,,,,,,,,,,,,,,,,,,,,,,,,,,,,,,,,,,,,,,,,,,,,,,,,,,,,,,,,,,,,,,,,,,,,,,,,299.07146600005217,None,300.6000845199917,None,300.5977667000843,None,300.5977667000843,None,302.9175791000016,None,1,1,0.33904610003810376,302.9175791000016,None,,001,2021_Feb_20_2348,GuessTheSound,2020.2.10,59.946467801396665,
,2,Initial/Doubled/Cat_A.wav,3,NEW,,,,,,,,,0,48,48,48,,,,,,,,,,,,,,,,,,,,,,,,,,,,,,,,,,,,,,,,,,,,,,,,,,,,,,,,,,,,,,,,,,,,,,,,,,,,,,,,,,,,,,,,,,,,,303.2887883000076,None,304.8170090200613,None,304.83084299997427,None,304.83084299997427,None,306.2510812000837,None,3,1,6.414131999947131,306.2510812000837,None,,001,2021_Feb_20_2348,GuessTheSound,2020.2.10,59.946467801396665,
,2,Initial/Repeat/Whistle_A.wav,3,NEW,,,,,,,,,0,49,49,49,,,,,,,,,,,,,,,,,,,,,,,,,,,,,,,,,,,,,,,,,,,,,,,,,,,,,,,,,,,,,,,,,,,,,,,,,,,,,,,,,,,,,,,,,,,,,312.6843381000217,None,314.2001123200637,None,314.19731570000295,None,314.19731570000295,None,315.68449710006826,None,3,1,0.47030170005746186,315.68449710006826,None,,001,2021_Feb_20_2348,GuessTheSound,2020.2.10,59.946467801396665,
,2,Duck_B.wav,2,SIMILAR,,,,,,,,,0,50,50,50,,,,,,,,,,,,,,,,,,,,,,,,,,,,,,,,,,,,,,,,,,,,,,,,,,,,,,,,,,,,,,,,,,,,,,,,,,,,,,,,,,,,,,,,,,,,,316.18819790007547,None,317.7169316200773,None,317.7241933000041,None,317.7241933000041,None,319.4342499000486,None,2,1,0.6361062000505626,319.4342499000486,None,,001,2021_Feb_20_2348,GuessTheSound,2020.2.10,59.946467801396665,
,2,Laugh_D.wav,2,SIMILAR,,,,,,,,,0,51,51,51,,,,,,,,,,,,,,,,,,,,,,,,,,,,,,,,,,,,,,,,,,,,,,,,,,,,,,,,,,,,,,,,,,,,,,,,,,,,,,,,,,,,,,,,,,,,,320.1053454000503,None,321.6502203800017,None,321.6485676000593,None,321.6485676000593,None,324.56559810007457,None,3,0,0.6811366999754682,324.56559810007457,None,,001,2021_Feb_20_2348,GuessTheSound,2020.2.10,59.946467801396665,
,1,Initial/Doubled/Chicken_A.wav,1,OLD,,,,,,,,,0,52,52,52,,,,,,,,,,,,,,,,,,,,,,,,,,,,,,,,,,,,,,,,,,,,,,,,,,,,,,,,,,,,,,,,,,,,,,,,,,,,,,,,,,,,,,,,,,,,,325.2656216999749,None,326.76563846007923,None,326.7760687000118,None,326.7760687000118,None,328.4498143000528,None,1,1,0.5547898999648169,328.4498143000528,None,,001,2021_Feb_20_2348,GuessTheSound,2020.2.10,59.946467801396665,
,1,Initial/Repeat/Cello.wav,1,OLD,,,,,,,,,0,53,53,53,,,,,,,,,,,,,,,,,,,,,,,,,,,,,,,,,,,,,,,,,,,,,,,,,,,,,,,,,,,,,,,,,,,,,,,,,,,,,,,,,,,,,,,,,,,,,329.03426820004825,None,330.5671659199754,None,330.5648554000072,None,330.5648554000072,None,333.46725260000676,None,1,1,0.2368082000175491,333.46725260000676,None,,001,2021_Feb_20_2348,GuessTheSound,2020.2.10,59.946467801396665,
,2,Test/Foils/Slurp.wav,3,NEW,,,,,,,,,0,54,54,54,,,,,,,,,,,,,,,,,,,,,,,,,,,,,,,,,,,,,,,,,,,,,,,,,,,,,,,,,,,,,,,,,,,,,,,,,,,,,,,,,,,,,,,,,,,,,333.7378337000264,None,335.28327118007,None,335.2840339000104,None,335.2840339000104,None,337.66726900008507,None,1,0,0.3213326999684796,337.66726900008507,None,,001,2021_Feb_20_2348,GuessTheSound,2020.2.10,59.946467801396665,
,2,Initial/Doubled/Chomp_A.wav,3,NEW,,,,,,,,,0,55,55,55,,,,,,,,,,,,,,,,,,,,,,,,,,,,,,,,,,,,,,,,,,,,,,,,,,,,,,,,,,,,,,,,,,,,,,,,,,,,,,,,,,,,,,,,,,,,,338.0180896000238,None,339.56630938006566,None,339.5762727999827,None,339.5762727999827,None,342.26724760001525,None,3,1,0.5643396000377834,342.26724760001525,None,,001,2021_Feb_20_2348,GuessTheSound,2020.2.10,59.946467801396665,
,1,Initial/Repeat/Airplane_B.wav,1,OLD,,,,,,,,,0,56,56,56,,,,,,,,,,,,,,,,,,,,,,,,,,,,,,,,,,,,,,,,,,,,,,,,,,,,,,,,,,,,,,,,,,,,,,,,,,,,,,,,,,,,,,,,,,,,,342.858210699982,None,344.3828812200111,None,344.38313480000943,None,344.38313480000943,None,347.0007694000378,None,3,0,0.6837518999818712,347.0007694000378,None,,001,2021_Feb_20_2348,GuessTheSound,2020.2.10,59.946467801396665,
,2,Initial/Repeat/ManWhistle.wav,3,NEW,,,,,,,,,0,57,57,57,,,,,,,,,,,,,,,,,,,,,,,,,,,,,,,,,,,,,,,,,,,,,,,,,,,,,,,,,,,,,,,,,,,,,,,,,,,,,,,,,,,,,,,,,,,,,347.7180988000473,None,349.26620648005047,None,349.26262080005836,None,349.26262080005836,None,351.483908800059,None,3,1,0.7943665999919176,351.483908800059,None,,001,2021_Feb_20_2348,GuessTheSound,2020.2.10,59.946467801396665,
,1,Initial/Repeat/Trumpet_B.wav,1,OLD,,,,,,,,,0,58,58,58,,,,,,,,,,,,,,,,,,,,,,,,,,,,,,,,,,,,,,,,,,,,,,,,,,,,,,,,,,,,,,,,,,,,,,,,,,,,,,,,,,,,,,,,,,,,,352.30020489997696,None,353.8161660200451,None,353.8141967999982,None,353.8141967999982,None,356.1171766000334,None,1,1,0.3090171000221744,356.1171766000334,None,,001,2021_Feb_20_2348,GuessTheSound,2020.2.10,59.946467801396665,
,2,Initial/Repeat/Cup.wav,3,NEW,,,,,,,,,0,59,59,59,,,,,,,,,,,,,,,,,,,,,,,,,,,,,,,,,,,,,,,,,,,,,,,,,,,,,,,,,,,,,,,,,,,,,,,,,,,,,,,,,,,,,,,,,,,,,356.4521815000335,None,357.9829572199844,None,357.9870846000267,None,357.9870846000267,None,359.31723769998644,None,3,1,0.37032149999868125,359.31723769998644,None,,001,2021_Feb_20_2348,GuessTheSound,2020.2.10,59.946467801396665,
,2,Snore_C.wav,2,SIMILAR,,,,,,,,,0,60,60,60,,,,,,,,,,,,,,,,,,,,,,,,,,,,,,,,,,,,,,,,,,,,,,,,,,,,,,,,,,,,,,,,,,,,,,,,,,,,,,,,,,,,,,,,,,,,,359.717341999989,None,361.2494819200831,None,361.25091729999986,None,361.25091729999986,None,364.13388970005326,None,2,1,0.6729099999647588,364.13388970005326,None,,001,2021_Feb_20_2348,GuessTheSound,2020.2.10,59.946467801396665,
,2,Test/Foils/Airhorn.wav,3,NEW,,,,,,,,,0,61,61,61,,,,,,,,,,,,,,,,,,,,,,,,,,,,,,,,,,,,,,,,,,,,,,,,,,,,,,,,,,,,,,,,,,,,,,,,,,,,,,,,,,,,,,,,,,,,,364.832247500075,None,366.3660501800012,None,366.3610090999864,None,366.3610090999864,None,368.9169638999738,None,3,1,0.34137769998051226,368.9169638999738,None,,001,2021_Feb_20_2348,GuessTheSound,2020.2.10,59.946467801396665,
,2,Whistle_C.wav,2,SIMILAR,,,,,,,,,0,62,62,62,,,,,,,,,,,,,,,,,,,,,,,,,,,,,,,,,,,,,,,,,,,,,,,,,,,,,,,,,,,,,,,,,,,,,,,,,,,,,,,,,,,,,,,,,,,,,369.28471500007436,None,370.816085620015,None,370.82425180007704,None,370.82425180007704,None,373.56691430008505,None,2,1,0.21120489994063973,373.56691430008505,None,,001,2021_Feb_20_2348,GuessTheSound,2020.2.10,59.946467801396665,
,1,Initial/Repeat/Sneeze_B.wav,1,OLD,,,,,,,,,0,63,63,63,,,,,,,,,,,,,,,,,,,,,,,,,,,,,,,,,,,,,,,,,,,,,,,,,,,,,,,,,,,,,,,,,,,,,,,,,,,,,,,,,,,,,,,,,,,,,373.80069830000866,None,375.2997164600762,None,375.31094750005286,None,375.31094750005286,None,376.5337532000849,None,1,1,0.6297357999719679,376.5337532000849,None,,001,2021_Feb_20_2348,GuessTheSound,2020.2.10,59.946467801396665,
,1,Initial/Doubled/Cat_A.wav,1,OLD,,,,,,,,,0,64,64,64,,,,,,,,,,,,,,,,,,,,,,,,,,,,,,,,,,,,,,,,,,,,,,,,,,,,,,,,,,,,,,,,,,,,,,,,,,,,,,,,,,,,,,,,,,,,,377.1847339000087,None,378.69954875998667,None,378.7084891999839,None,378.7084891999839,None,380.1337866000831,None,3,0,0.7644596999743953,380.1337866000831,None,,001,2021_Feb_20_2348,GuessTheSound,2020.2.10,59.946467801396665,
,2,Phone_D.wav,3,NEW,,,,,,,,,0,65,65,65,,,,,,,,,,,,,,,,,,,,,,,,,,,,,,,,,,,,,,,,,,,,,,,,,,,,,,,,,,,,,,,,,,,,,,,,,,,,,,,,,,,,,,,,,,,,,380.92443270003423,None,382.4491953200661,None,382.4540545999771,None,382.4540545999771,None,385.00114840001334,None,3,1,0.5518913000123575,385.00114840001334,None,,001,2021_Feb_20_2348,GuessTheSound,2020.2.10,59.946467801396665,
,2,Initial/Repeat/Bagpipe.wav,3,NEW,,,,,,,,,0,66,66,66,,,,,,,,,,,,,,,,,,,,,,,,,,,,,,,,,,,,,,,,,,,,,,,,,,,,,,,,,,,,,,,,,,,,,,,,,,,,,,,,,,,,,,,,,,,,,385.5867104000645,None,387.13265217999,None,387.13095660007093,None,387.13095660007093,None,389.50007050007116,None,1,0,0.3031812000554055,389.50007050007116,None,,001,2021_Feb_20_2348,GuessTheSound,2020.2.10,59.946467801396665,
,2,Chomp_C.wav,2,SIMILAR,,,,,,,,,0,67,67,67,,,,,,,,,,,,,,,,,,,,,,,,,,,,,,,,,,,,,,,,,,,,,,,,,,,,,,,,,,,,,,,,,,,,,,,,,,,,,,,,,,,,,,,,,,,,,389.8354187000077,None,391.4159227000782,None,391.4174811000703,None,391.4174811000703,None,394.1836609999882,None,2,1,0.5960955999325961,394.1836609999882,None,,001,2021_Feb_20_2348,GuessTheSound,2020.2.10,59.946467801396665,
,1,Test/Foils/Slurp.wav,1,OLD,,,,,,,,,0,68,68,68,,,,,,,,,,,,,,,,,,,,,,,,,,,,,,,,,,,,,,,,,,,,,,,,,,,,,,,,,,,,,,,,,,,,,,,,,,,,,,,,,,,,,,,,,,,,,394.79900910006836,None,396.2989971600706,None,396.30865340004675,None,396.30865340004675,None,398.6835131000262,None,3,0,0.3286191000370309,398.6835131000262,None,,001,2021_Feb_20_2348,GuessTheSound,2020.2.10,59.946467801396665,
,2,Test/Foils/Bowlingpins.wav,3,NEW,,,,,,,,,0,69,69,69,,,,,,,,,,,,,,,,,,,,,,,,,,,,,,,,,,,,,,,,,,,,,,,,,,,,,,,,,,,,,,,,,,,,,,,,,,,,,,,,,,,,,,,,,,,,,399.0337351000635,None,400.56612521996726,None,400.5774003000697,None,400.5774003000697,None,403.0166336999973,None,3,1,0.21935459994710982,403.0166336999973,None,,001,2021_Feb_20_2348,GuessTheSound,2020.2.10,59.946467801396665,
,1,Initial/Repeat/ManWhistle.wav,1,OLD,,,,,,,,,0,70,70,70,,,,,,,,,,,,,,,,,,,,,,,,,,,,,,,,,,,,,,,,,,,,,,,,,,,,,,,,,,,,,,,,,,,,,,,,,,,,,,,,,,,,,,,,,,,,,403.2684515999863,None,404.782235860033,None,404.7966029000236,None,404.7966029000236,None,407.01652270008344,None,3,0,0.25282459997106344,407.01652270008344,None,,001,2021_Feb_20_2348,GuessTheSound,2020.2.10,59.946467801396665,
,2,Initial/NoRepeat/Cow.wav,3,NEW,,,,,,,,,0,71,71,71,,,,,,,,,,,,,,,,,,,,,,,,,,,,,,,,,,,,,,,,,,,,,,,,,,,,,,,,,,,,,,,,,,,,,,,,,,,,,,,,,,,,,,,,,,,,,407.29980909998994,None,408.84955443998336,None,408.8447673000628,None,408.8447673000628,None,410.6834378000349,None,3,1,0.3270378999877721,410.6834378000349,None,,001,2021_Feb_20_2348,GuessTheSound,2020.2.10,59.946467801396665,
,2,Initial/Doubled/Siren_A.wav,3,NEW,,,,,,,,,0,72,72,72,,,,,,,,,,,,,,,,,,,,,,,,,,,,,,,,,,,,,,,,,,,,,,,,,,,,,,,,,,,,,,,,,,,,,,,,,,,,,,,,,,,,,,,,,,,,,411.033947500051,None,412.56549452005424,None,412.57477669999935,None,412.57477669999935,None,415.3664124000352,None,3,1,0.06733690004330128,415.3664124000352,None,,001,2021_Feb_20_2348,GuessTheSound,2020.2.10,59.946467801396665,
,2,Initial/Repeat/Crow_B.wav,3,NEW,,,,,,,,,0,73,73,73,,,,,,,,,,,,,,,,,,,,,,,,,,,,,,,,,,,,,,,,,,,,,,,,,,,,,,,,,,,,,,,,,,,,,,,,,,,,,,,,,,,,,,,,,,,,,415.4530947000021,None,416.9989971799776,None,417.0041555999778,None,417.0041555999778,None,419.08323029999156,None,3,1,0.1888095000758767,419.08323029999156,None,,001,2021_Feb_20_2348,GuessTheSound,2020.2.10,59.946467801396665,
,1,Initial/Repeat/Bagpipe.wav,1,OLD,,,,,,,,,0,74,74,74,,,,,,,,,,,,,,,,,,,,,,,,,,,,,,,,,,,,,,,,,,,,,,,,,,,,,,,,,,,,,,,,,,,,,,,,,,,,,,,,,,,,,,,,,,,,,419.2988780000014,None,420.81548002006025,None,420.81327759998385,None,420.81327759998385,None,423.18323790002614,None,1,1,0.36179490003269166,423.18323790002614,None,,001,2021_Feb_20_2348,GuessTheSound,2020.2.10,59.946467801396665,
,1,Initial/Repeat/Cup.wav,1,OLD,,,,,,,,,0,75,75,75,,,,,,,,,,,,,,,,,,,,,,,,,,,,,,,,,,,,,,,,,,,,,,,,,,,,,,,,,,,,,,,,,,,,,,,,,,,,,,,,,,,,,,,,,,,,,423.5676243000198,None,425.0820915600285,None,425.0904564000666,None,425.0904564000666,None,426.41639040003065,None,1,1,0.3353217000840232,426.41639040003065,None,,001,2021_Feb_20_2348,GuessTheSound,2020.2.10,59.946467801396665,
,2,Test/Foils/Bullfrog.wav,3,NEW,,,,,,,,,0,76,76,76,,,,,,,,,,,,,,,,,,,,,,,,,,,,,,,,,,,,,,,,,,,,,,,,,,,,,,,,,,,,,,,,,,,,,,,,,,,,,,,,,,,,,,,,,,,,,426.78343429998495,None,428.33199208003936,None,428.330557600013,None,428.330557600013,None,431.24980770004913,None,3,1,0.2197405999759212,431.24980770004913,None,,001,2021_Feb_20_2348,GuessTheSound,2020.2.10,59.946467801396665,
,2,Initial/Repeat/Phone_A.wav,2,SIMILAR,,,,,,,,,0,77,77,77,,,,,,,,,,,,,,,,,,,,,,,,,,,,,,,,,,,,,,,,,,,,,,,,,,,,,,,,,,,,,,,,,,,,,,,,,,,,,,,,,,,,,,,,,,,,,431.5082851999905,None,433.048764279997,None,433.04892029997427,None,433.04892029997427,None,435.99973699997645,None,2,1,0.4534963999176398,435.99973699997645,None,,001,2021_Feb_20_2348,GuessTheSound,2020.2.10,59.946467801396665,
,2,Initial/Doubled/HairDryer_A.wav,3,NEW,,,,,,,,,0,78,78,78,,,,,,,,,,,,,,,,,,,,,,,,,,,,,,,,,,,,,,,,,,,,,,,,,,,,,,,,,,,,,,,,,,,,,,,,,,,,,,,,,,,,,,,,,,,,,436.48696810007095,None,438.03223457997666,None,438.02858350006863,None,438.02858350006863,None,440.59953990008216,None,3,1,0.2812741999514401,440.59953990008216,None,,001,2021_Feb_20_2348,GuessTheSound,2020.2.10,59.946467801396665,
,1,Test/Foils/Airhorn.wav,1,OLD,,,,,,,,,0,79,79,79,,,,,,,,,,,,,,,,,,,,,,,,,,,,,,,,,,,,,,,,,,,,,,,,,,,,,,,,,,,,,,,,,,,,,,,,,,,,,,,,,,,,,,,,,,,,,440.9016171999974,None,442.43214122001086,None,442.42922549997456,None,442.42922549997456,None,444.98307550000027,None,1,1,0.5594917999114841,444.98307550000027,None,,001,2021_Feb_20_2348,GuessTheSound,2020.2.10,59.946467801396665,
,2,Initial/NoRepeat/Hammer_A.wav,3,NEW,,,,,,,,,0,80,80,80,,,,,,,,,,,,,,,,,,,,,,,,,,,,,,,,,,,,,,,,,,,,,,,,,,,,,,,,,,,,,,,,,,,,,,,,,,,,,,,,,,,,,,,,,,,,,445.5698468000628,None,447.1151578800753,None,447.1124170999974,None,447.1124170999974,None,449.582934300066,None,3,1,0.3014138999860734,449.582934300066,None,,001,2021_Feb_20_2348,GuessTheSound,2020.2.10,59.946467801396665,
,2,Initial/Doubled/Cuckoo_A.wav,3,NEW,,,,,,,,,0,81,81,81,,,,,,,,,,,,,,,,,,,,,,,,,,,,,,,,,,,,,,,,,,,,,,,,,,,,,,,,,,,,,,,,,,,,,,,,,,,,,,,,,,,,,,,,,,,,,449.9035226000706,None,451.43196941998326,None,451.44347850000486,None,451.44347850000486,None,453.93291450000834,None,3,1,0.16242410009726882,453.93291450000834,None,,001,2021_Feb_20_2348,GuessTheSound,2020.2.10,59.946467801396665,
,1,Initial/NoRepeat/Cow.wav,1,OLD,,,,,,,,,0,82,82,82,,,,,,,,,,,,,,,,,,,,,,,,,,,,,,,,,,,,,,,,,,,,,,,,,,,,,,,,,,,,,,,,,,,,,,,,,,,,,,,,,,,,,,,,,,,,,454.1166543000145,None,455.63184146003334,None,455.64253559999634,None,455.64253559999634,None,457.483000600012,None,1,1,0.3583394999150187,457.483000600012,None,,001,2021_Feb_20_2348,GuessTheSound,2020.2.10,59.946467801396665,
,2,Initial/NoRepeat/Footsteps_B.wav,3,NEW,,,,,,,,,0,83,83,83,,,,,,,,,,,,,,,,,,,,,,,,,,,,,,,,,,,,,,,,,,,,,,,,,,,,,,,,,,,,,,,,,,,,,,,,,,,,,,,,,,,,,,,,,,,,,457.87660269998014,None,459.41506888002624,None,459.4110584000591,None,459.4110584000591,None,462.0660425000824,None,3,1,0.6531271999701858,462.0660425000824,None,,001,2021_Feb_20_2348,GuessTheSound,2020.2.10,59.946467801396665,
,2,Dog_E.wav,3,NEW,,,,,,,,,0,84,84,84,,,,,,,,,,,,,,,,,,,,,,,,,,,,,,,,,,,,,,,,,,,,,,,,,,,,,,,,,,,,,,,,,,,,,,,,,,,,,,,,,,,,,,,,,,,,,462.7498754999833,None,464.2650954600191,None,464.2724041000474,None,464.2724041000474,None,466.03298700007144,None,3,1,0.5153120999457315,466.03298700007144,None,,001,2021_Feb_20_2348,GuessTheSound,2020.2.10,59.946467801396665,
,1,Test/Foils/Bowlingpins.wav,1,OLD,,,,,,,,,0,85,85,85,,,,,,,,,,,,,,,,,,,,,,,,,,,,,,,,,,,,,,,,,,,,,,,,,,,,,,,,,,,,,,,,,,,,,,,,,,,,,,,,,,,,,,,,,,,,,466.57025079999585,None,468.0982150200755,None,468.09310900000855,None,468.09310900000855,None,470.53325340000447,None,1,1,0.044862500042654574,470.53325340000447,None,,001,2021_Feb_20_2348,GuessTheSound,2020.2.10,59.946467801396665,
,2,Piano_D.wav,3,NEW,,,,,,,,,0,86,86,86,,,,,,,,,,,,,,,,,,,,,,,,,,,,,,,,,,,,,,,,,,,,,,,,,,,,,,,,,,,,,,,,,,,,,,,,,,,,,,,,,,,,,,,,,,,,,470.5985030999873,None,472.11519172000703,None,472.1250281999819,None,472.1250281999819,None,475.11577859998215,None,3,1,0.46819759998470545,475.11577859998215,None,,001,2021_Feb_20_2348,GuessTheSound,2020.2.10,59.946467801396665,
,2,Initial/NoRepeat/Fireworks.wav,3,NEW,,,,,,,,,0,87,87,87,,,,,,,,,,,,,,,,,,,,,,,,,,,,,,,,,,,,,,,,,,,,,,,,,,,,,,,,,,,,,,,,,,,,,,,,,,,,,,,,,,,,,,,,,,,,,475.59801209997386,None,477.11540672001433,None,477.120399300009,None,477.120399300009,None,480.082520200056,None,3,1,0.40463140001520514,480.082520200056,None,,001,2021_Feb_20_2348,GuessTheSound,2020.2.10,59.946467801396665,
,1,Test/Foils/Bullfrog.wav,1,OLD,,,,,,,,,0,88,88,88,,,,,,,,,,,,,,,,,,,,,,,,,,,,,,,,,,,,,,,,,,,,,,,,,,,,,,,,,,,,,,,,,,,,,,,,,,,,,,,,,,,,,,,,,,,,,480.5152234999696,None,482.0318348199828,None,482.0314228000352,None,482.0314228000352,None,484.9490912000183,None,3,0,0.5706312999827787,484.9490912000183,None,,001,2021_Feb_20_2348,GuessTheSound,2020.2.10,59.946467801396665,
,2,Siren_C.wav,2,SIMILAR,,,,,,,,,0,89,89,89,,,,,,,,,,,,,,,,,,,,,,,,,,,,,,,,,,,,,,,,,,,,,,,,,,,,,,,,,,,,,,,,,,,,,,,,,,,,,,,,,,,,,,,,,,,,,485.54954799998086,None,487.06520292004575,None,487.068344600033,None,487.068344600033,None,489.53233570000157,None,2,1,0.180772399995476,489.53233570000157,None,,001,2021_Feb_20_2348,GuessTheSound,2020.2.10,59.946467801396665,
,2,Crow_A.wav,2,SIMILAR,,,,,,,,,0,90,90,90,,,,,,,,,,,,,,,,,,,,,,,,,,,,,,,,,,,,,,,,,,,,,,,,,,,,,,,,,,,,,,,,,,,,,,,,,,,,,,,,,,,,,,,,,,,,,489.7359479999868,None,491.26530651997314,None,491.2674612000119,None,491.2674612000119,None,492.9655949000735,None,2,1,0.8158814000198618,492.9655949000735,None,,001,2021_Feb_20_2348,GuessTheSound,2020.2.10,59.946467801396665,
,2,Initial/NoRepeat/Goat_B.wav,3,NEW,,,,,,,,,0,91,91,91,,,,,,,,,,,,,,,,,,,,,,,,,,,,,,,,,,,,,,,,,,,,,,,,,,,,,,,,,,,,,,,,,,,,,,,,,,,,,,,,,,,,,,,,,,,,,493.7983506000601,None,495.331786979991,None,495.3324961999897,None,495.3324961999897,None,497.4823235999793,None,3,1,0.3953795999987051,497.4823235999793,None,,001,2021_Feb_20_2348,GuessTheSound,2020.2.10,59.946467801396665,
,1,Initial/Doubled/HairDryer_A.wav,1,OLD,,,,,,,,,0,92,92,92,,,,,,,,,,,,,,,,,,,,,,,,,,,,,,,,,,,,,,,,,,,,,,,,,,,,,,,,,,,,,,,,,,,,,,,,,,,,,,,,,,,,,,,,,,,,,497.8989586000098,None,499.41524722001054,None,499.41266710008495,None,499.41266710008495,None,501.98251070000697,None,1,1,1.2076357000041753,501.98251070000697,None,,001,2021_Feb_20_2348,GuessTheSound,2020.2.10,59.946467801396665,
,1,Initial/Doubled/Cuckoo_A.wav,1,OLD,,,,,,,,,0,93,93,93,,,,,,,,,,,,,,,,,,,,,,,,,,,,,,,,,,,,,,,,,,,,,,,,,,,,,,,,,,,,,,,,,,,,,,,,,,,,,,,,,,,,,,,,,,,,,503.21588909998536,None,504.7479831200792,None,504.74473070004024,None,504.74473070004024,None,507.23212579998653,None,1,1,0.299429600010626,507.23212579998653,None,,001,2021_Feb_20_2348,GuessTheSound,2020.2.10,59.946467801396665,
,2,Coin_C.wav,3,NEW,,,,,,,,,0,94,94,94,,,,,,,,,,,,,,,,,,,,,,,,,,,,,,,,,,,,,,,,,,,,,,,,,,,,,,,,,,,,,,,,,,,,,,,,,,,,,,,,,,,,,,,,,,,,,507.5480069000041,None,509.06448912008204,None,509.06798819999676,None,509.06798819999676,None,510.381927600014,None,3,1,1.1005540000041947,510.381927600014,None,,001,2021_Feb_20_2348,GuessTheSound,2020.2.10,59.946467801396665,
,2,Initial/Repeat/Howl.wav,3,NEW,,,,,,,,,0,95,95,95,,,,,,,,,,,,,,,,,,,,,,,,,,,,,,,,,,,,,,,,,,,,,,,,,,,,,,,,,,,,,,,,,,,,,,,,,,,,,,,,,,,,,,,,,,,,,511.5022641000105,None,513.0480526800501,None,513.0448963000672,None,513.0448963000672,None,515.7988943000091,None,3,1,0.4090645000105724,515.7988943000091,None,,001,2021_Feb_20_2348,GuessTheSound,2020.2.10,59.946467801396665,
,1,Initial/NoRepeat/Hammer_A.wav,1,OLD,,,,,,,,,0,96,96,96,,,,,,,,,,,,,,,,,,,,,,,,,,,,,,,,,,,,,,,,,,,,,,,,,,,,,,,,,,,,,,,,,,,,,,,,,,,,,,,,,,,,,,,,,,,,,516.2326664000284,None,517.7646249200218,None,517.7626649000449,None,517.7626649000449,None,520.2323631000472,None,1,1,0.31117250001989305,520.2323631000472,None,,001,2021_Feb_20_2348,GuessTheSound,2020.2.10,59.946467801396665,
,2,Initial/NoRepeat/Helicopter_A.wav,3,NEW,,,,,,,,,0,97,97,97,,,,,,,,,,,,,,,,,,,,,,,,,,,,,,,,,,,,,,,,,,,,,,,,,,,,,,,,,,,,,,,,,,,,,,,,,,,,,,,,,,,,,,,,,,,,,520.5660830000415,None,522.1143797799713,None,522.111866399995,None,522.111866399995,None,524.5653118999908,None,3,1,0.5282676999922842,524.5653118999908,None,,001,2021_Feb_20_2348,GuessTheSound,2020.2.10,59.946467801396665,
,2,Initial/Doubled/Bubbles_A.wav,3,NEW,,,,,,,,,0,98,98,98,,,,,,,,,,,,,,,,,,,,,,,,,,,,,,,,,,,,,,,,,,,,,,,,,,,,,,,,,,,,,,,,,,,,,,,,,,,,,,,,,,,,,,,,,,,,,525.1144478999777,None,526.6477169800318,None,526.6442733000731,None,526.6442733000731,None,529.0652504999889,None,3,1,0.4571420999709517,529.0652504999889,None,,001,2021_Feb_20_2348,GuessTheSound,2020.2.10,59.946467801396665,
,2,Footsteps_C.wav,2,SIMILAR,,,,,,,,,0,99,99,99,,,,,,,,,,,,,,,,,,,,,,,,,,,,,,,,,,,,,,,,,,,,,,,,,,,,,,,,,,,,,,,,,,,,,,,,,,,,,,,,,,,,,,,,,,,,,529.5482970000012,None,531.0646001199959,None,531.0745963000227,None,531.0745963000227,None,533.8486899000127,None,3,0,0.3202132999431342,533.8486899000127,None,,001,2021_Feb_20_2348,GuessTheSound,2020.2.10,59.946467801396665,
,2,Initial/Doubled/Growl_A.wav,3,NEW,,,,,,,,,0,100,100,100,,,,,,,,,,,,,,,,,,,,,,,,,,,,,,,,,,,,,,,,,,,,,,,,,,,,,,,,,,,,,,,,,,,,,,,,,,,,,,,,,,,,,,,,,,,,,534.2042565000011,None,535.747669079993,None,535.7554112999933,None,535.7554112999933,None,538.5986389999744,None,3,1,0.19626979995518923,538.5986389999744,None,,001,2021_Feb_20_2348,GuessTheSound,2020.2.10,59.946467801396665,
,2,Test/Foils/Horse.wav,3,NEW,,,,,,,,,0,101,101,101,,,,,,,,,,,,,,,,,,,,,,,,,,,,,,,,,,,,,,,,,,,,,,,,,,,,,,,,,,,,,,,,,,,,,,,,,,,,,,,,,,,,,,,,,,,,,538.814112400054,None,540.3308668199927,None,540.3426870000549,None,540.3426870000549,None,542.5316586000845,None,3,1,0.3456747999880463,542.5316586000845,None,,001,2021_Feb_20_2348,GuessTheSound,2020.2.10,59.946467801396665,
,1,Piano_D.wav,1,OLD,,,,,,,,,0,102,102,102,,,,,,,,,,,,,,,,,,,,,,,,,,,,,,,,,,,,,,,,,,,,,,,,,,,,,,,,,,,,,,,,,,,,,,,,,,,,,,,,,,,,,,,,,,,,,542.8988490999909,None,544.4309878200759,None,544.429883099976,None,544.429883099976,None,547.4318818000611,None,1,1,0.2906348999822512,547.4318818000611,None,,001,2021_Feb_20_2348,GuessTheSound,2020.2.10,59.946467801396665,
,2,Dog_F.wav,2,SIMILAR,,,,,,,,,0,103,103,103,,,,,,,,,,,,,,,,,,,,,,,,,,,,,,,,,,,,,,,,,,,,,,,,,,,,,,,,,,,,,,,,,,,,,,,,,,,,,,,,,,,,,,,,,,,,,547.7482892000116,None,549.2643462199951,None,549.2613550000824,None,549.2613550000824,None,550.9318688000785,None,2,1,1.4742962999735028,550.9318688000785,None,,001,2021_Feb_20_2348,GuessTheSound,2020.2.10,59.946467801396665,
,1,Initial/NoRepeat/Fireworks.wav,1,OLD,,,,,,,,,0,104,104,104,,,,,,,,,,,,,,,,,,,,,,,,,,,,,,,,,,,,,,,,,,,,,,,,,,,,,,,,,,,,,,,,,,,,,,,,,,,,,,,,,,,,,,,,,,,,,552.4343213000102,None,553.9642905199901,None,553.958916899981,None,553.958916899981,None,556.9319595000707,None,3,0,0.5112254000268877,556.9319595000707,None,,001,2021_Feb_20_2348,GuessTheSound,2020.2.10,59.946467801396665,
,2,Initial/Repeat/Printer.wav,3,NEW,,,,,,,,,0,105,105,105,,,,,,,,,,,,,,,,,,,,,,,,,,,,,,,,,,,,,,,,,,,,,,,,,,,,,,,,,,,,,,,,,,,,,,,,,,,,,,,,,,,,,,,,,,,,,557.4640758000314,None,558.9808215200203,None,558.9940960999811,None,558.9940960999811,None,561.7649622000754,None,3,1,0.46944189991336316,561.7649622000754,None,,001,2021_Feb_20_2348,GuessTheSound,2020.2.10,59.946467801396665,
,2,Test/Foils/Camera.wav,3,NEW,,,,,,,,,0,106,106,106,,,,,,,,,,,,,,,,,,,,,,,,,,,,,,,,,,,,,,,,,,,,,,,,,,,,,,,,,,,,,,,,,,,,,,,,,,,,,,,,,,,,,,,,,,,,,562.266943100025,None,563.7972617199878,None,563.7987503000768,None,563.7987503000768,None,564.7649511999916,None,3,1,0.5886390000814572,564.7649511999916,None,,001,2021_Feb_20_2348,GuessTheSound,2020.2.10,59.946467801396665,
,2,Clap_B.wav,3,NEW,,,,,,,,,0,107,107,107,,,,,,,,,,,,,,,,,,,,,,,,,,,,,,,,,,,,,,,,,,,,,,,,,,,,,,,,,,,,,,,,,,,,,,,,,,,,,,,,,,,,,,,,,,,,,565.3847290000413,None,566.9139830200468,None,566.917589000077,None,566.917589000077,None,569.5817413000623,None,3,1,0.3563511000247672,569.5817413000623,None,,001,2021_Feb_20_2348,GuessTheSound,2020.2.10,59.946467801396665,
,2,Initial/Repeat/PaperRip.wav,3,NEW,,,,,,,,,0,108,108,108,,,,,,,,,,,,,,,,,,,,,,,,,,,,,,,,,,,,,,,,,,,,,,,,,,,,,,,,,,,,,,,,,,,,,,,,,,,,,,,,,,,,,,,,,,,,,569.9641947000055,None,571.4806518200087,None,571.4845530000748,None,571.4845530000748,None,573.0816710999934,None,3,1,0.36638910009060055,573.0816710999934,None,,001,2021_Feb_20_2348,GuessTheSound,2020.2.10,59.946467801396665,
,2,Coin_B.wav,2,SIMILAR,,,,,,,,,0,109,109,109,,,,,,,,,,,,,,,,,,,,,,,,,,,,,,,,,,,,,,,,,,,,,,,,,,,,,,,,,,,,,,,,,,,,,,,,,,,,,,,,,,,,,,,,,,,,,573.4646647999762,None,574.9806140200701,None,574.9853884000331,None,574.9853884000331,None,576.348145200056,None,2,1,1.2411532999249175,576.348145200056,None,,001,2021_Feb_20_2348,GuessTheSound,2020.2.10,59.946467801396665,
,2,Initial/NoRepeat/Droplet_B.wav,3,NEW,,,,,,,,,0,110,110,110,,,,,,,,,,,,,,,,,,,,,,,,,,,,,,,,,,,,,,,,,,,,,,,,,,,,,,,,,,,,,,,,,,,,,,,,,,,,,,,,,,,,,,,,,,,,,577.6142136000562,None,579.14728077997,None,579.1540932999924,None,579.1540932999924,None,581.3146025000606,None,3,1,0.6962426999816671,581.3146025000606,None,,001,2021_Feb_20_2348,GuessTheSound,2020.2.10,59.946467801396665,
,2,Test/Foils/Steam.wav,3,NEW,,,,,,,,,0,111,111,111,,,,,,,,,,,,,,,,,,,,,,,,,,,,,,,,,,,,,,,,,,,,,,,,,,,,,,,,,,,,,,,,,,,,,,,,,,,,,,,,,,,,,,,,,,,,,582.0318294999888,None,583.5972274400759,None,583.5994351999834,None,583.5994351999834,None,586.1146886000643,None,3,1,0.36928720003925264,586.1146886000643,None,,001,2021_Feb_20_2348,GuessTheSound,2020.2.10,59.946467801396665,
,1,Initial/NoRepeat/Helicopter_A.wav,1,OLD,,,,,,,,,0,112,112,112,,,,,,,,,,,,,,,,,,,,,,,,,,,,,,,,,,,,,,,,,,,,,,,,,,,,,,,,,,,,,,,,,,,,,,,,,,,,,,,,,,,,,,,,,,,,,586.5325986000244,None,588.0471842199797,None,588.0420124999946,None,588.0420124999946,None,590.497925600037,None,1,1,0.2639919000212103,590.497925600037,None,,001,2021_Feb_20_2348,GuessTheSound,2020.2.10,59.946467801396665,
,2,CarStart_D.wav,3,NEW,,,,,,,,,0,113,113,113,,,,,,,,,,,,,,,,,,,,,,,,,,,,,,,,,,,,,,,,,,,,,,,,,,,,,,,,,,,,,,,,,,,,,,,,,,,,,,,,,,,,,,,,,,,,,590.7845591000514,None,592.3138505199925,None,592.3143259000499,None,592.3143259000499,None,595.2479704000289,None,3,1,0.2927341000176966,595.2479704000289,None,,001,2021_Feb_20_2348,GuessTheSound,2020.2.10,59.946467801396665,
,1,Initial/Repeat/Howl.wav,1,OLD,,,,,,,,,0,114,114,114,,,,,,,,,,,,,,,,,,,,,,,,,,,,,,,,,,,,,,,,,,,,,,,,,,,,,,,,,,,,,,,,,,,,,,,,,,,,,,,,,,,,,,,,,,,,,595.5638055000454,None,597.0803424200742,None,597.0794048000826,None,597.0794048000826,None,599.8312821000582,None,3,0,0.3655676000053063,599.8312821000582,None,,001,2021_Feb_20_2348,GuessTheSound,2020.2.10,59.946467801396665,
,2,Growl_B.wav,2,SIMILAR,,,,,,,,,0,115,115,115,,,,,,,,,,,,,,,,,,,,,,,,,,,,,,,,,,,,,,,,,,,,,,,,,,,,,,,,,,,,,,,,,,,,,,,,,,,,,,,,,,,,,,,,,,,,,600.2160352000501,None,601.7471047200263,None,601.7610863000154,None,601.7610863000154,None,604.7312546999892,None,3,0,1.1829104999778792,604.7312546999892,None,,001,2021_Feb_20_2348,GuessTheSound,2020.2.10,59.946467801396665,
,2,Goat_C.wav,2,SIMILAR,,,,,,,,,0,116,116,116,,,,,,,,,,,,,,,,,,,,,,,,,,,,,,,,,,,,,,,,,,,,,,,,,,,,,,,,,,,,,,,,,,,,,,,,,,,,,,,,,,,,,,,,,,,,,605.9319333999883,None,607.4639304200421,None,607.4712060000747,None,607.4712060000747,None,609.2978612000588,None,2,1,0.5907941999612376,609.2978612000588,None,,001,2021_Feb_20_2348,GuessTheSound,2020.2.10,59.946467801396665,
,2,Test/Foils/Donkey.wav,3,NEW,,,,,,,,,0,117,117,117,,,,,,,,,,,,,,,,,,,,,,,,,,,,,,,,,,,,,,,,,,,,,,,,,,,,,,,,,,,,,,,,,,,,,,,,,,,,,,,,,,,,,,,,,,,,,609.9187423000112,None,611.4472806200386,None,611.4560180000262,None,611.4560180000262,None,614.1644987000618,None,1,0,0.30128030001651496,614.1644987000618,None,,001,2021_Feb_20_2348,GuessTheSound,2020.2.10,59.946467801396665,
,1,Initial/Repeat/PaperRip.wav,1,OLD,,,,,,,,,0,118,118,118,,,,,,,,,,,,,,,,,,,,,,,,,,,,,,,,,,,,,,,,,,,,,,,,,,,,,,,,,,,,,,,,,,,,,,,,,,,,,,,,,,,,,,,,,,,,,614.5077080000192,None,616.0134576600045,None,616.0258931000717,None,616.0258931000717,None,617.6144697000273,None,3,0,0.413478400092572,617.6144697000273,None,,001,2021_Feb_20_2348,GuessTheSound,2020.2.10,59.946467801396665,
,2,Test/Lures/Bubbles_B.wav,2,SIMILAR,,,,,,,,,0,119,119,119,,,,,,,,,,,,,,,,,,,,,,,,,,,,,,,,,,,,,,,,,,,,,,,,,,,,,,,,,,,,,,,,,,,,,,,,,,,,,,,,,,,,,,,,,,,,,618.0502329000738,None,619.580128220073,None,619.5907272000331,None,619.5907272000331,None,622.0309283999959,None,2,1,2.260321299894713,622.0309283999959,None,,001,2021_Feb_20_2348,GuessTheSound,2020.2.10,59.946467801396665,
,1,Test/Foils/Horse.wav,1,OLD,,,,,,,,,0,120,120,120,,,,,,,,,,,,,,,,,,,,,,,,,,,,,,,,,,,,,,,,,,,,,,,,,,,,,,,,,,,,,,,,,,,,,,,,,,,,,,,,,,,,,,,,,,,,,624.3208623999963,None,625.8302496599732,None,625.8418280000333,None,625.8418280000333,None,628.0294210000429,None,1,1,6.837263399967924,628.0294210000429,None,,001,2021_Feb_20_2348,GuessTheSound,2020.2.10,59.946467801396665,
,1,Initial/Repeat/Printer.wav,1,OLD,,,,,,,,,0,121,121,121,,,,,,,,,,,,,,,,,,,,,,,,,,,,,,,,,,,,,,,,,,,,,,,,,,,,,,,,,,,,,,,,,,,,,,,,,,,,,,,,,,,,,,,,,,,,,634.9010325000854,None,636.4298818200361,None,636.4238364000339,None,636.4238364000339,None,639.1974168000743,None,1,1,0.7385798000032082,639.1974168000743,None,,001,2021_Feb_20_2348,GuessTheSound,2020.2.10,59.946467801396665,
,1,Test/Foils/Camera.wav,1,OLD,,,,,,,,,0,122,122,122,,,,,,,,,,,,,,,,,,,,,,,,,,,,,,,,,,,,,,,,,,,,,,,,,,,,,,,,,,,,,,,,,,,,,,,,,,,,,,,,,,,,,,,,,,,,,639.9642688999884,None,641.4803321600426,None,641.4924023000058,None,641.4924023000058,None,642.4643612999935,None,1,1,1.3356390999397263,642.4643612999935,None,,001,2021_Feb_20_2348,GuessTheSound,2020.2.10,59.946467801396665,
,1,Initial/NoRepeat/Droplet_B.wav,1,OLD,,,,,,,,,0,123,123,123,,,,,,,,,,,,,,,,,,,,,,,,,,,,,,,,,,,,,,,,,,,,,,,,,,,,,,,,,,,,,,,,,,,,,,,,,,,,,,,,,,,,,,,,,,,,,643.8317524000304,None,645.3634660200216,None,645.3623134000227,None,645.3623134000227,None,647.5141212000744,None,3,0,1.247356400010176,647.5141212000744,None,,001,2021_Feb_20_2348,GuessTheSound,2020.2.10,59.946467801396665,
,1,Test/Foils/Steam.wav,1,OLD,,,,,,,,,0,124,124,124,,,,,,,,,,,,,,,,,,,,,,,,,,,,,,,,,,,,,,,,,,,,,,,,,,,,,,,,,,,,,,,,,,,,,,,,,,,,,,,,,,,,,,,,,,,,,648.7817985999864,None,650.3133141199826,None,650.3079566999804,None,650.3079566999804,None,652.8307343000779,None,1,1,0.16226539993658662,652.8307343000779,None,,001,2021_Feb_20_2348,GuessTheSound,2020.2.10,59.946467801396665,
,2,CarStart_E.wav,2,SIMILAR,,,,,,,,,0,125,125,125,,,,,,,,,,,,,,,,,,,,,,,,,,,,,,,,,,,,,,,,,,,,,,,,,,,,,,,,,,,,,,,,,,,,,,,,,,,,,,,,,,,,,,,,,,,,,653.0135963000357,None,654.5464210799663,None,654.5422090999782,None,654.5422090999782,None,657.0471509000054,None,2,1,4.283182399929501,657.0471509000054,None,,001,2021_Feb_20_2348,GuessTheSound,2020.2.10,59.946467801396665,
,1,Test/Foils/Donkey.wav,1,OLD,,,,,,,,,0,126,126,126,,,,,,,,,,,,,,,,,,,,,,,,,,,,,,,,,,,,,,,,,,,,,,,,,,,,,,,,,,,,,,,,,,,,,,,,,,,,,,,,,,,,,,,,,,,,,661.3463437000755,None,662.8631336200517,None,662.8624350000173,None,662.8624350000173,None,665.5804258000571,None,1,1,2.1437550999689847,665.5804258000571,None,,001,2021_Feb_20_2348,GuessTheSound,2020.2.10,59.946467801396665,
,2,Clap_C.wav,2,SIMILAR,,,,,,,,,0,127,127,127,,,,,,,,,,,,,,,,,,,,,,,,,,,,,,,,,,,,,,,,,,,,,,,,,,,,,,,,,,,,,,,,,,,,,,,,,,,,,,,,,,,,,,,,,,,,,667.7484037000686,None,669.2795272199903,None,669.2856913000578,None,669.2856913000578,None,671.9137934000464,None,2,1,3.1017564999638125,671.9137934000464,None,,001,2021_Feb_20_2348,GuessTheSound,2020.2.10,59.946467801396665,
