File,Correct,SoundFiles3,trials_2.thisRepN,trials_2.thisTrialN,trials_2.thisN,trials_2.thisIndex,PracticeTrials.thisRepN,PracticeTrials.thisTrialN,PracticeTrials.thisN,PracticeTrials.thisIndex,trials.thisRepN,trials.thisTrialN,trials.thisN,trials.thisIndex,InstructionTxt.started,InstructionTxt.stopped,WelcomContinue.started,WelcomContinue.stopped,VolumeBeginTxt.started,VolumeBeginTxt.stopped,VolumeContinueKey.keys,VolumeContinueKey.rt,VolumeContinueKey.started,VolumeContinueKey.stopped,text.started,text.stopped,Music.started,Music.stopped,AdjustContinue.started,AdjustContinue.stopped,HeadphoneCheckBeing.started,HeadphoneCheckBeing.stopped,HeadphoneContinue.started,HeadphoneContinue.stopped,HeadphoneContinueKey.keys,HeadphoneContinueKey.rt,HeadphoneContinueKey.started,HeadphoneContinueKey.stopped,CheckSound.started,CheckSound.stopped,QuestionTxt.started,QuestionTxt.stopped,CheckTrial.started,CheckTrial.stopped,CrossHeadphone.started,CrossHeadphone.stopped,CheckResp.keys,CheckResp.corr,CheckResp.rt,CheckResp.started,CheckResp.stopped,FeedbackTxt.started,FeedbackTxt.stopped,WelcomeTxt1.started,WelcomeTxt1.stopped,ContinueKey1.started,ContinueKey1.stopped,ContinueResp.keys,ContinueResp.rt,ContinueResp.started,ContinueResp.stopped,Welcome2Txt.started,Welcome2Txt.stopped,Wel2ContinueKey.keys,Wel2ContinueKey.rt,Wel2ContinueKey.started,Wel2ContinueKey.stopped,Continue2.started,Continue2.stopped,InstructionTxt2.started,InstructionTxt2.stopped,WelcomeContinue2.started,WelcomeContinue2.stopped,WelcomeContinueKey2.keys,WelcomeContinueKey2.rt,WelcomeContinueKey2.started,WelcomeContinueKey2.stopped,TrialNumber.started,TrialNumber.stopped,PracticeSound.started,PracticeSound.stopped,PracticeCross.started,PracticeCross.stopped,Practice_resp.keys,Practice_resp.corr,Practice_resp.rt,Practice_resp.started,Practice_resp.stopped,PracticeMssg.started,PracticeMssg.stopped,FeedbackCross.started,FeedbackCross.stopped,Continue.started,Continue.stopped,Options.started,Options.stopped,FeedbackMssg.started,FeedbackMssg.stopped,StartTxt.started,StartTxt.stopped,StartTast.keys,StartTast.rt,StartTast.started,StartTast.stopped,ContinueStart.started,ContinueStart.stopped,no_3.started,no_3.stopped,TargetSound.started,TargetSound.stopped,Cross.started,Cross.stopped,ItemNumber.started,ItemNumber.stopped,MSTQuestion.started,MSTQuestion.stopped,MSTResp.keys,MSTResp.corr,MSTResp.rt,MSTResp.started,MSTResp.stopped,participant,session,date,expName,psychopyVersion,frameRate,
,,,,,,,,,,,,,,,12.097815299988724,None,12.097815299988724,None,12.681774300057441,None,space,0.7560393000021577,12.681774300057441,None,,,,,,,,,,,,,,,,,,,,,,,,,,,,,,,,,,,,,,,,,,,,,,,,,,,,,,,,,,,,,,,,,,,,,,,,,,,,,,,,,,,,,,,,,,,,,,,,,,,001,2021_Jan_23_2327,GuessTheSound,2020.2.10,59.404117312326704,
,,,,,,,,,,,,,,,,,,,,,,,,,13.482597399968654,None,13.481783059984444,None,13.482597399968654,None,14.665323800058104,None,14.665323800058104,None,space,0.6285295999841765,14.665323800058104,None,,,,,,,,,,,,,,,,,,,,,,,,,,,,,,,,,,,,,,,,,,,,,,,,,,,,,,,,,,,,,,,,,,,,,,,,,,,,,,,,,,,,,001,2021_Jan_23_2327,GuessTheSound,2020.2.10,59.404117312326704,
Headphone/t1_2.wav,1,,0,0,0,1,,,,,,,,,,,,,,,,,,,,,,,,,,,,,,,,,15.46558330010157,None,19.996756199980155,None,15.464557299972512,20.013380600023083,15.464557299972512,20.013380600023083,1,1,0.31970989995170385,19.996756199980155,None,20.35326740005985,None,,,,,,,,,,,,,,,,,,,,,,,,,,,,,,,,,,,,,,,,,,,,,,,,,,,,,,,,,,,,,,,,,,,,,,001,2021_Jan_23_2327,GuessTheSound,2020.2.10,59.404117312326704,
Headphone/t3_2.wav,3,,0,1,1,5,,,,,,,,,,,,,,,,,,,,,,,,,,,,,,,,,21.363496229972224,None,25.898411400034092,None,21.367433000006713,25.91509160003625,21.367433000006713,25.91509160003625,3,1,0.8897892999229953,25.898411400034092,None,26.814651799970306,None,,,,,,,,,,,,,,,,,,,,,,,,,,,,,,,,,,,,,,,,,,,,,,,,,,,,,,,,,,,,,,,,,,,,,,001,2021_Jan_23_2327,GuessTheSound,2020.2.10,59.404117312326704,
Headphone/t3_1.wav,3,,0,2,2,4,,,,,,,,,,,,,,,,,,,,,,,,,,,,,,,,,27.83124806007836,None,32.34804469998926,None,27.827416999964043,32.36467210005503,27.827416999964043,32.36467210005503,3,1,0.11706520000007004,32.34804469998926,None,32.480966500006616,None,,,,,,,,,,,,,,,,,,,,,,,,,,,,,,,,,,,,,,,,,,,,,,,,,,,,,,,,,,,,,,,,,,,,,,001,2021_Jan_23_2327,GuessTheSound,2020.2.10,59.404117312326704,
Headphone/t1_1.wav,1,,0,3,3,0,,,,,,,,,,,,,,,,,,,,,,,,,,,,,,,,,33.49802065999248,None,38.03119240002707,None,33.496509599965066,38.03119240002707,33.496509599965066,38.03119240002707,1,1,0.6166760999476537,38.03119240002707,None,38.66456130007282,None,,,,,,,,,,,,,,,,,,,,,,,,,,,,,,,,,,,,,,,,,,,,,,,,,,,,,,,,,,,,,,,,,,,,,,001,2021_Jan_23_2327,GuessTheSound,2020.2.10,59.404117312326704,
Headphone/t2_2.wav,2,,0,4,4,3,,,,,,,,,,,,,,,,,,,,,,,,,,,,,,,,,39.68081115998794,None,44.2148620999651,None,39.68026809999719,44.2148620999651,39.68026809999719,44.2148620999651,2,1,1.2910969000076875,44.2148620999651,None,45.53077479999047,None,,,,,,,,,,,,,,,,,,,,,,,,,,,,,,,,,,,,,,,,,,,,,,,,,,,,,,,,,,,,,,,,,,,,,,001,2021_Jan_23_2327,GuessTheSound,2020.2.10,59.404117312326704,
Headphone/t2_1.wav,2,,0,5,5,2,,,,,,,,,,,,,,,,,,,,,,,,,,,,,,,,,46.547788360016426,None,51.064834099961445,None,46.54273350001313,51.08130740001798,46.54273350001313,51.08130740001798,2,1,0.6694260000949726,51.064834099961445,None,51.76432369998656,None,,,,,,,,,,,,,,,,,,,,,,,,,,,,,,,,,,,,,,,,,,,,,,,,,,,,,,,,,,,,,,,,,,,,,,001,2021_Jan_23_2327,GuessTheSound,2020.2.10,59.404117312326704,
,,,,,,,,,,,,,,,,,,,,,,,,,,,,,,,,,,,,,,,,,,,,,,,,,,,,,,52.76490349997766,None,52.76490349997766,None,space,1.5418240999570116,52.76490349997766,None,,,,,,,,,,,,,,,,,,,,,,,,,,,,,,,,,,,,,,,,,,,,,,,,,,,,,,,,,,,,,,001,2021_Jan_23_2327,GuessTheSound,2020.2.10,59.404117312326704,
,,,,,,,,,,,,,,,,,,,,,,,,,,,,,,,,,,,,,,,,,,,,,,,,,,,,,,,,,,,,,,54.331549800001085,None,space,1.0903623999329284,54.331549800001085,None,,,,,,,,,,,,,,,,,,,,,,,,,,,,,,,,,,,,,,,,,,,,,,,,,,,,,,,,001,2021_Jan_23_2327,GuessTheSound,2020.2.10,59.404117312326704,
,,,,,,,,,,,,,,,,,,,,,,,,,,,,,,,,,,,,,,,,,,,,,,,,,,,,,,,,,,,,,,,,,,,,54.331549800001085,None,55.447698000003584,None,55.447698000003584,None,space,0.6944371999707073,55.447698000003584,None,,,,,,,,,,,,,,,,,,,,,,,,,,,,,,,,,,,,,,,,,,,,,,001,2021_Jan_23_2327,GuessTheSound,2020.2.10,59.404117312326704,
,3,Practice/Seagull_A.wav,,,,,0,0,0,0,,,,,,,,,,,,,,,,,,,,,,,,,,,,,,,,,,,,,,,,,,,,,,,,,,,,,,,,,,,,,,,,,,,,56.188048899988644,None,56.181158460071316,None,56.188048899988644,None,3,1,0.6164374999934807,58.46579789998941,None,58.46579789998941,None,58.46579789998941,None,58.46579789998941,None,58.46579789998941,None,59.09733360004611,None,,,,,,,,,,,,,,,,,,,,,,,,,001,2021_Jan_23_2327,GuessTheSound,2020.2.10,59.404117312326704,
,3,Practice/Skid_B.wav,,,,,0,1,1,1,,,,,,,,,,,,,,,,,,,,,,,,,,,,,,,,,,,,,,,,,,,,,,,,,,,,,,,,,,,,,,,,,,,,60.099428400048055,None,60.097496930032506,None,60.099428400048055,None,3,1,0.5451224999269471,62.215325900004245,None,62.215325900004245,None,62.215325900004245,None,62.215325900004245,None,62.215325900004245,None,62.78056540002581,None,,,,,,,,,,,,,,,,,,,,,,,,,001,2021_Jan_23_2327,GuessTheSound,2020.2.10,59.404117312326704,
,1,Practice/Seagull_A.wav,,,,,0,2,2,2,,,,,,,,,,,,,,,,,,,,,,,,,,,,,,,,,,,,,,,,,,,,,,,,,,,,,,,,,,,,,,,,,,,,63.78061440004967,None,63.780564330040946,None,63.78061440004967,None,3,0,0.79228450008668,66.0510929999873,None,66.0510929999873,None,66.0510929999873,None,66.0510929999873,None,66.0510929999873,None,66.86450829997193,None,,,,,,,,,,,,,,,,,,,,,,,,,001,2021_Jan_23_2327,GuessTheSound,2020.2.10,59.404117312326704,
,3,Practice/Gargle_A.wav,,,,,0,3,3,3,,,,,,,,,,,,,,,,,,,,,,,,,,,,,,,,,,,,,,,,,,,,,,,,,,,,,,,,,,,,,,,,,,,,67.88910530006979,None,67.89750599007822,None,67.88910530006979,None,3,1,0.4161761000286788,70.1645290000597,None,70.1645290000597,None,70.1645290000597,None,70.1645290000597,None,70.1645290000597,None,70.59819499996956,None,,,,,,,,,,,,,,,,,,,,,,,,,001,2021_Jan_23_2327,GuessTheSound,2020.2.10,59.404117312326704,
,2,Practice/Gargle_B.wav,,,,,0,4,4,4,,,,,,,,,,,,,,,,,,,,,,,,,,,,,,,,,,,,,,,,,,,,,,,,,,,,,,,,,,,,,,,,,,,,71.6138506999705,None,71.61392692999216,None,71.6138506999705,None,2,1,0.5515283000422642,73.66465970000718,None,73.66465970000718,None,73.66465970000718,None,73.66465970000718,None,73.66465970000718,None,74.23052059998736,None,,,,,,,,,,,,,,,,,,,,,,,,,001,2021_Jan_23_2327,GuessTheSound,2020.2.10,59.404117312326704,
,,,,,,,,,,,,,,,,,,,,,,,,,,,,,,,,,,,,,,,,,,,,,,,,,,,,,,,,,,,,,,,,,,,,,,,,,,,,,,,,,,,,,,,,,,,,,,,,,,,75.23107099998742,None,space,1.4067484999541193,75.23107099998742,None,,,,,,,,,,,,,,,,,,,001,2021_Jan_23_2327,GuessTheSound,2020.2.10,59.404117312326704,
,3,Initial/NoRepeat/Elephant_A.wav,,,,,,,,,0,0,0,0,,,,,,,,,,,,,,,,,,,,,,,,,,,,,,,,,,,,,,,,,,,,,,,,,,,,,,,,,,,,,,,,,,,,,,,,,,,,,,,,,,,,,,,,,,,75.23107099998742,None,76.68577089998871,None,78.17913483000594,None,78.18517209996935,None,78.18517209996935,None,81.24736270005815,None,3,1,0.9186676000244915,81.24736270005815,None,,001,2021_Jan_23_2327,GuessTheSound,2020.2.10,59.404117312326704,
,3,Initial/Doubled/Coin_A.wav,,,,,,,,,0,1,1,1,,,,,,,,,,,,,,,,,,,,,,,,,,,,,,,,,,,,,,,,,,,,,,,,,,,,,,,,,,,,,,,,,,,,,,,,,,,,,,,,,,,,,,,,,,,,,82.19609129999299,None,83.69673493002774,None,83.70148950000294,None,83.70148950000294,None,85.31657170003746,None,3,1,0.8581174000864848,85.31657170003746,None,,001,2021_Jan_23_2327,GuessTheSound,2020.2.10,59.404117312326704,
,3,Initial/Doubled/Cuckoo_A.wav,,,,,,,,,0,2,2,2,,,,,,,,,,,,,,,,,,,,,,,,,,,,,,,,,,,,,,,,,,,,,,,,,,,,,,,,,,,,,,,,,,,,,,,,,,,,,,,,,,,,,,,,,,,,,86.19702159997541,None,87.71376736005769,None,87.70489739999175,None,87.70489739999175,None,90.19787609996274,None,3,1,0.4521475000074133,90.19787609996274,None,,001,2021_Jan_23_2327,GuessTheSound,2020.2.10,59.404117312326704,
,3,Initial/Doubled/Piano_A.wav,,,,,,,,,0,3,3,3,,,,,,,,,,,,,,,,,,,,,,,,,,,,,,,,,,,,,,,,,,,,,,,,,,,,,,,,,,,,,,,,,,,,,,,,,,,,,,,,,,,,,,,,,,,,,90.68028710002545,None,92.18056143004215,None,92.18021929997485,None,92.18021929997485,None,95.0479539000662,None,3,1,2.3596321999793872,95.0479539000662,None,,001,2021_Jan_23_2327,GuessTheSound,2020.2.10,59.404117312326704,
,3,Initial/Doubled/Siren_A.wav,,,,,,,,,0,4,4,4,,,,,,,,,,,,,,,,,,,,,,,,,,,,,,,,,,,,,,,,,,,,,,,,,,,,,,,,,,,,,,,,,,,,,,,,,,,,,,,,,,,,,,,,,,,,,97.43032509996556,None,98.93026713001309,None,98.9301822000416,None,98.9301822000416,None,101.73176540003624,None,3,1,0.8948370000580326,101.73176540003624,None,,001,2021_Jan_23_2327,GuessTheSound,2020.2.10,59.404117312326704,
,3,Test/Foils/Bird.wav,,,,,,,,,0,5,5,5,,,,,,,,,,,,,,,,,,,,,,,,,,,,,,,,,,,,,,,,,,,,,,,,,,,,,,,,,,,,,,,,,,,,,,,,,,,,,,,,,,,,,,,,,,,,,102.64687190006953,None,104.16434246008285,None,104.15699579997454,None,104.15699579997454,None,106.86425230000168,None,3,1,0.6162842999910936,106.86425230000168,None,,001,2021_Jan_23_2327,GuessTheSound,2020.2.10,59.404117312326704,
,3,Initial/Doubled/Cat_A.wav,,,,,,,,,0,6,6,6,,,,,,,,,,,,,,,,,,,,,,,,,,,,,,,,,,,,,,,,,,,,,,,,,,,,,,,,,,,,,,,,,,,,,,,,,,,,,,,,,,,,,,,,,,,,,107.49678350007161,None,109.01366626003292,None,109.00646110007074,None,109.00646110007074,None,110.43111810006667,None,3,1,0.34713890007697046,110.43111810006667,None,,001,2021_Jan_23_2327,GuessTheSound,2020.2.10,59.404117312326704,
,3,Initial/NoRepeat/Baby_B.wav,,,,,,,,,0,7,7,7,,,,,,,,,,,,,,,,,,,,,,,,,,,,,,,,,,,,,,,,,,,,,,,,,,,,,,,,,,,,,,,,,,,,,,,,,,,,,,,,,,,,,,,,,,,,,110.79685290006455,None,112.3138995599933,None,112.30849650001619,None,112.30849650001619,None,115.34771270002238,None,3,1,1.5661661999765784,115.34771270002238,None,,001,2021_Jan_23_2327,GuessTheSound,2020.2.10,59.404117312326704,
,3,Initial/Doubled/Writing_A.wav,,,,,,,,,0,8,8,8,,,,,,,,,,,,,,,,,,,,,,,,,,,,,,,,,,,,,,,,,,,,,,,,,,,,,,,,,,,,,,,,,,,,,,,,,,,,,,,,,,,,,,,,,,,,,116.92999309999868,None,118.44719086003025,None,118.44888559996616,None,118.44888559996616,None,121.14791880000848,None,3,1,0.8091339999809861,121.14791880000848,None,,001,2021_Jan_23_2327,GuessTheSound,2020.2.10,59.404117312326704,
,2,Piano_B.wav,,,,,,,,,0,9,9,9,,,,,,,,,,,,,,,,,,,,,,,,,,,,,,,,,,,,,,,,,,,,,,,,,,,,,,,,,,,,,,,,,,,,,,,,,,,,,,,,,,,,,,,,,,,,,121.97999240003992,None,123.49723276004661,None,123.5054061000701,None,123.5054061000701,None,126.16469570004847,None,3,0,3.203886099974625,126.16469570004847,None,,001,2021_Jan_23_2327,GuessTheSound,2020.2.10,59.404117312326704,
,3,Initial/NoRepeat/Sleighbells_B.wav,,,,,,,,,0,10,10,10,,,,,,,,,,,,,,,,,,,,,,,,,,,,,,,,,,,,,,,,,,,,,,,,,,,,,,,,,,,,,,,,,,,,,,,,,,,,,,,,,,,,,,,,,,,,,129.39709720003884,None,130.91357026002368,None,130.91199339996092,None,130.91199339996092,None,133.33150880003814,None,3,1,0.8360037000384182,133.33150880003814,None,,001,2021_Jan_23_2327,GuessTheSound,2020.2.10,59.404117312326704,
,3,Test/Foils/Typing.wav,,,,,,,,,0,11,11,11,,,,,,,,,,,,,,,,,,,,,,,,,,,,,,,,,,,,,,,,,,,,,,,,,,,,,,,,,,,,,,,,,,,,,,,,,,,,,,,,,,,,,,,,,,,,,134.19691369996872,None,135.7139881599927,None,135.7275617000414,None,135.7275617000414,None,138.59625820000656,None,3,1,0.8964614000869915,138.59625820000656,None,,001,2021_Jan_23_2327,GuessTheSound,2020.2.10,59.404117312326704,
,3,Initial/Repeat/Pour.wav,,,,,,,,,0,12,12,12,,,,,,,,,,,,,,,,,,,,,,,,,,,,,,,,,,,,,,,,,,,,,,,,,,,,,,,,,,,,,,,,,,,,,,,,,,,,,,,,,,,,,,,,,,,,,139.51424950000364,None,141.0457806599792,None,141.0464939000085,None,141.0464939000085,None,143.61410890007392,None,3,1,8.025477500050329,143.61410890007392,None,,001,2021_Jan_23_2327,GuessTheSound,2020.2.10,59.404117312326704,
,3,Initial/Doubled/HairDryer_A.wav,,,,,,,,,0,13,13,13,,,,,,,,,,,,,,,,,,,,,,,,,,,,,,,,,,,,,,,,,,,,,,,,,,,,,,,,,,,,,,,,,,,,,,,,,,,,,,,,,,,,,,,,,,,,,151.66530460002832,None,153.21322989006293,None,153.21647510002367,None,153.21647510002367,None,155.79775380005594,None,3,1,0.4818837000057101,155.79775380005594,None,,001,2021_Jan_23_2327,GuessTheSound,2020.2.10,59.404117312326704,
,1,Initial/Doubled/Cuckoo_A.wav,,,,,,,,,0,14,14,14,,,,,,,,,,,,,,,,,,,,,,,,,,,,,,,,,,,,,,,,,,,,,,,,,,,,,,,,,,,,,,,,,,,,,,,,,,,,,,,,,,,,,,,,,,,,,156.29677380004432,None,157.81375266003886,None,157.81153100007214,None,157.81153100007214,None,160.29760599997826,None,3,0,0.23669960000552237,160.29760599997826,None,,001,2021_Jan_23_2327,GuessTheSound,2020.2.10,59.404117312326704,
,3,Initial/Doubled/Chime_A.wav,,,,,,,,,0,15,15,15,,,,,,,,,,,,,,,,,,,,,,,,,,,,,,,,,,,,,,,,,,,,,,,,,,,,,,,,,,,,,,,,,,,,,,,,,,,,,,,,,,,,,,,,,,,,,160.5675004000077,None,162.0966221600305,None,162.10189920000266,None,162.10189920000266,None,164.93077159998938,None,3,1,1.3976955999387428,164.93077159998938,None,,001,2021_Jan_23_2327,GuessTheSound,2020.2.10,59.404117312326704,
,3,Initial/NoRepeat/Fireworks.wav,,,,,,,,,0,16,16,16,,,,,,,,,,,,,,,,,,,,,,,,,,,,,,,,,,,,,,,,,,,,,,,,,,,,,,,,,,,,,,,,,,,,,,,,,,,,,,,,,,,,,,,,,,,,,166.34809800004587,None,167.87960526007225,None,167.87709770002402,None,167.87709770002402,None,170.84736889996566,None,3,1,0.44323900004383177,170.84736889996566,None,,001,2021_Jan_23_2327,GuessTheSound,2020.2.10,59.404117312326704,
,2,Baby_A.wav,,,,,,,,,0,17,17,17,,,,,,,,,,,,,,,,,,,,,,,,,,,,,,,,,,,,,,,,,,,,,,,,,,,,,,,,,,,,,,,,,,,,,,,,,,,,,,,,,,,,,,,,,,,,,171.31598600000143,None,172.84669756002256,None,172.84880070004147,None,172.84880070004147,None,175.4474139000522,None,3,0,4.0447314999764785,175.4474139000522,None,,001,2021_Jan_23_2327,GuessTheSound,2020.2.10,59.404117312326704,
,3,Test/Foils/DialTone.wav,,,,,,,,,0,18,18,18,,,,,,,,,,,,,,,,,,,,,,,,,,,,,,,,,,,,,,,,,,,,,,,,,,,,,,,,,,,,,,,,,,,,,,,,,,,,,,,,,,,,,,,,,,,,,179.51368990004994,None,181.0298741600476,None,181.03926400002092,None,181.03926400002092,None,183.54738750006072,None,3,1,0.3721033000620082,183.54738750006072,None,,001,2021_Jan_23_2327,GuessTheSound,2020.2.10,59.404117312326704,
,2,Siren_B.wav,,,,,,,,,0,19,19,19,,,,,,,,,,,,,,,,,,,,,,,,,,,,,,,,,,,,,,,,,,,,,,,,,,,,,,,,,,,,,,,,,,,,,,,,,,,,,,,,,,,,,,,,,,,,,183.94647169997916,None,185.46347346003165,None,185.460177400033,None,185.460177400033,None,188.51411550003104,None,3,0,2.832738499972038,188.51411550003104,None,,001,2021_Jan_23_2327,GuessTheSound,2020.2.10,59.404117312326704,
,3,Initial/Repeat/Sneeze_B.wav,,,,,,,,,0,20,20,20,,,,,,,,,,,,,,,,,,,,,,,,,,,,,,,,,,,,,,,,,,,,,,,,,,,,,,,,,,,,,,,,,,,,,,,,,,,,,,,,,,,,,,,,,,,,,191.3631152000744,None,192.87962776001075,None,192.88032290001865,None,192.88032290001865,None,194.11395440006163,None,3,1,0.5886350000509992,194.11395440006163,None,,001,2021_Jan_23_2327,GuessTheSound,2020.2.10,59.404117312326704,
,2,Bird_C.wav,,,,,,,,,0,21,21,21,,,,,,,,,,,,,,,,,,,,,,,,,,,,,,,,,,,,,,,,,,,,,,,,,,,,,,,,,,,,,,,,,,,,,,,,,,,,,,,,,,,,,,,,,,,,,194.7301580000203,None,196.2464790600119,None,196.2403917000629,None,196.2403917000629,None,197.98058199998923,None,3,0,0.6730759999481961,197.98058199998923,None,,001,2021_Jan_23_2327,GuessTheSound,2020.2.10,59.404117312326704,
,2,Pour_D.wav,,,,,,,,,0,22,22,22,,,,,,,,,,,,,,,,,,,,,,,,,,,,,,,,,,,,,,,,,,,,,,,,,,,,,,,,,,,,,,,,,,,,,,,,,,,,,,,,,,,,,,,,,,,,,198.6810170999961,None,200.2131162599893,None,200.215761700063,None,200.215761700063,None,203.2639495000476,None,3,0,0.6988208999391645,203.2639495000476,None,,001,2021_Jan_23_2327,GuessTheSound,2020.2.10,59.404117312326704,
,3,Test/Foils/Camera.wav,,,,,,,,,0,23,23,23,,,,,,,,,,,,,,,,,,,,,,,,,,,,,,,,,,,,,,,,,,,,,,,,,,,,,,,,,,,,,,,,,,,,,,,,,,,,,,,,,,,,,,,,,,,,,203.97924530005548,None,205.47978092996635,None,205.48958319996018,None,205.48958319996018,None,206.46421320002992,None,3,1,1.2351729000220075,206.46421320002992,None,,001,2021_Jan_23_2327,GuessTheSound,2020.2.10,59.404117312326704,
,1,Initial/Doubled/Writing_A.wav,,,,,,,,,0,24,24,24,,,,,,,,,,,,,,,,,,,,,,,,,,,,,,,,,,,,,,,,,,,,,,,,,,,,,,,,,,,,,,,,,,,,,,,,,,,,,,,,,,,,,,,,,,,,,207.7303011000622,None,209.24652265999464,None,209.24283420003485,None,209.24283420003485,None,211.94716039998457,None,3,0,0.7317599001107737,211.94716039998457,None,,001,2021_Jan_23_2327,GuessTheSound,2020.2.10,59.404117312326704,
,1,Test/Foils/Typing.wav,,,,,,,,,0,25,25,25,,,,,,,,,,,,,,,,,,,,,,,,,,,,,,,,,,,,,,,,,,,,,,,,,,,,,,,,,,,,,,,,,,,,,,,,,,,,,,,,,,,,,,,,,,,,,212.69808969995938,None,214.2125219299807,None,214.21285540005192,None,214.21285540005192,None,217.0800340999849,None,3,0,0.5314710999373347,217.0800340999849,None,,001,2021_Jan_23_2327,GuessTheSound,2020.2.10,59.404117312326704,
,3,Initial/NoRepeat/Snore_B.wav,,,,,,,,,0,26,26,26,,,,,,,,,,,,,,,,,,,,,,,,,,,,,,,,,,,,,,,,,,,,,,,,,,,,,,,,,,,,,,,,,,,,,,,,,,,,,,,,,,,,,,,,,,,,,217.6328676000703,None,219.14651892996625,None,219.15690920001362,None,219.15690920001362,None,221.5808504000306,None,3,1,0.6989815999986604,221.5808504000306,None,,001,2021_Jan_23_2327,GuessTheSound,2020.2.10,59.404117312326704,
,2,Baby_C.wav,,,,,,,,,0,27,27,27,,,,,,,,,,,,,,,,,,,,,,,,,,,,,,,,,,,,,,,,,,,,,,,,,,,,,,,,,,,,,,,,,,,,,,,,,,,,,,,,,,,,,,,,,,,,,222.29817239998374,None,223.82947755998464,None,223.8247238000622,None,223.8247238000622,None,226.31371660006698,None,3,0,0.521324000088498,226.31371660006698,None,,001,2021_Jan_23_2327,GuessTheSound,2020.2.10,59.404117312326704,
,2,Siren_C.wav,,,,,,,,,0,28,28,28,,,,,,,,,,,,,,,,,,,,,,,,,,,,,,,,,,,,,,,,,,,,,,,,,,,,,,,,,,,,,,,,,,,,,,,,,,,,,,,,,,,,,,,,,,,,,226.86615300003905,None,228.37950552998808,None,228.38608430000022,None,228.38608430000022,None,230.8636256000027,None,3,0,0.6623257999308407,230.8636256000027,None,,001,2021_Jan_23_2327,GuessTheSound,2020.2.10,59.404117312326704,
,1,Initial/Doubled/Chime_A.wav,,,,,,,,,0,29,29,29,,,,,,,,,,,,,,,,,,,,,,,,,,,,,,,,,,,,,,,,,,,,,,,,,,,,,,,,,,,,,,,,,,,,,,,,,,,,,,,,,,,,,,,,,,,,,231.5465736000333,None,233.04598072996595,None,233.05367160006426,None,233.05367160006426,None,235.88015350000933,None,3,0,0.4268152000149712,235.88015350000933,None,,001,2021_Jan_23_2327,GuessTheSound,2020.2.10,59.404117312326704,
,2,Piano_C.wav,,,,,,,,,0,30,30,30,,,,,,,,,,,,,,,,,,,,,,,,,,,,,,,,,,,,,,,,,,,,,,,,,,,,,,,,,,,,,,,,,,,,,,,,,,,,,,,,,,,,,,,,,,,,,236.329831100069,None,237.8463639600435,None,237.8523664000677,None,237.8523664000677,None,240.83051500003785,None,3,0,0.8037658999674022,240.83051500003785,None,,001,2021_Jan_23_2327,GuessTheSound,2020.2.10,59.404117312326704,
,1,Initial/NoRepeat/Fireworks.wav,,,,,,,,,0,31,31,31,,,,,,,,,,,,,,,,,,,,,,,,,,,,,,,,,,,,,,,,,,,,,,,,,,,,,,,,,,,,,,,,,,,,,,,,,,,,,,,,,,,,,,,,,,,,,241.6624302000273,None,243.1622636300628,None,243.1649973000167,None,243.1649973000167,None,246.1300554999616,None,3,0,0.70840990007855,246.1300554999616,None,,001,2021_Jan_23_2327,GuessTheSound,2020.2.10,59.404117312326704,
,2,Pour_C.wav,,,,,,,,,0,32,32,32,,,,,,,,,,,,,,,,,,,,,,,,,,,,,,,,,,,,,,,,,,,,,,,,,,,,,,,,,,,,,,,,,,,,,,,,,,,,,,,,,,,,,,,,,,,,,246.86329830007162,None,248.37923266002906,None,248.37509630003478,None,248.37509630003478,None,251.38026290002745,None,3,0,1.6035690000280738,251.38026290002745,None,,001,2021_Jan_23_2327,GuessTheSound,2020.2.10,59.404117312326704,
,2,Bird_D.wav,,,,,,,,,0,33,33,33,,,,,,,,,,,,,,,,,,,,,,,,,,,,,,,,,,,,,,,,,,,,,,,,,,,,,,,,,,,,,,,,,,,,,,,,,,,,,,,,,,,,,,,,,,,,,253.012097000028,None,254.52942556000778,None,254.53067820006981,None,254.53067820006981,None,255.86306890007108,None,3,0,0.28493690001778305,255.86306890007108,None,,001,2021_Jan_23_2327,GuessTheSound,2020.2.10,59.404117312326704,
,3,Initial/Repeat/Airplane_B.wav,,,,,,,,,0,34,34,34,,,,,,,,,,,,,,,,,,,,,,,,,,,,,,,,,,,,,,,,,,,,,,,,,,,,,,,,,,,,,,,,,,,,,,,,,,,,,,,,,,,,,,,,,,,,,256.16494799999055,None,257.6963717600796,None,257.6959849999985,None,257.6959849999985,None,260.31321060005575,None,3,1,0.153340500080958,260.31321060005575,None,,001,2021_Jan_23_2327,GuessTheSound,2020.2.10,59.404117312326704,
,3,Test/Foils/Buzz.wav,,,,,,,,,0,35,35,35,,,,,,,,,,,,,,,,,,,,,,,,,,,,,,,,,,,,,,,,,,,,,,,,,,,,,,,,,,,,,,,,,,,,,,,,,,,,,,,,,,,,,,,,,,,,,260.50124100001995,None,262.02880236003546,None,262.0333704999648,None,262.0333704999648,None,264.3465759999817,None,3,1,0.6641461999388412,264.3465759999817,None,,001,2021_Jan_23_2327,GuessTheSound,2020.2.10,59.404117312326704,
,3,Test/Foils/Donkey.wav,,,,,,,,,0,36,36,36,,,,,,,,,,,,,,,,,,,,,,,,,,,,,,,,,,,,,,,,,,,,,,,,,,,,,,,,,,,,,,,,,,,,,,,,,,,,,,,,,,,,,,,,,,,,,265.02902919996995,None,266.5458605600055,None,266.5550520999823,None,266.5550520999823,None,269.2631784999976,None,3,1,0.3630966000491753,269.2631784999976,None,,001,2021_Jan_23_2327,GuessTheSound,2020.2.10,59.404117312326704,
,1,Initial/Doubled/Cuckoo_A.wav,,,,,,,,,0,37,37,37,,,,,,,,,,,,,,,,,,,,,,,,,,,,,,,,,,,,,,,,,,,,,,,,,,,,,,,,,,,,,,,,,,,,,,,,,,,,,,,,,,,,,,,,,,,,,269.6460399000207,None,271.14525352999334,None,271.1453807000071,None,271.1453807000071,None,273.63017210003454,None,3,0,0.31567889999132603,273.63017210003454,None,,001,2021_Jan_23_2327,GuessTheSound,2020.2.10,59.404117312326704,
,3,Initial/Doubled/Chicken_A.wav,,,,,,,,,0,38,38,38,,,,,,,,,,,,,,,,,,,,,,,,,,,,,,,,,,,,,,,,,,,,,,,,,,,,,,,,,,,,,,,,,,,,,,,,,,,,,,,,,,,,,,,,,,,,,273.96199139999226,None,275.4633033299935,None,275.4717068000464,None,275.4717068000464,None,277.14661649998743,None,3,1,0.627295000012964,277.14661649998743,None,,001,2021_Jan_23_2327,GuessTheSound,2020.2.10,59.404117312326704,
,3,Initial/Doubled/Laugh_A.wav,,,,,,,,,0,39,39,39,,,,,,,,,,,,,,,,,,,,,,,,,,,,,,,,,,,,,,,,,,,,,,,,,,,,,,,,,,,,,,,,,,,,,,,,,,,,,,,,,,,,,,,,,,,,,277.80207630002405,None,279.3290778599679,None,279.33152220002376,None,279.33152220002376,None,282.0293254000135,None,3,1,0.006243300042115152,282.0293254000135,None,,001,2021_Jan_23_2327,GuessTheSound,2020.2.10,59.404117312326704,
,1,Test/Foils/Typing.wav,,,,,,,,,0,40,40,40,,,,,,,,,,,,,,,,,,,,,,,,,,,,,,,,,,,,,,,,,,,,,,,,,,,,,,,,,,,,,,,,,,,,,,,,,,,,,,,,,,,,,,,,,,,,,282.06183680007234,None,283.579060160066,None,283.57655100000557,None,283.57655100000557,None,286.446520700003,None,3,0,0.308938599890098,286.446520700003,None,,001,2021_Jan_23_2327,GuessTheSound,2020.2.10,59.404117312326704,
,3,Initial/Doubled/Cough_A.wav,,,,,,,,,0,41,41,41,,,,,,,,,,,,,,,,,,,,,,,,,,,,,,,,,,,,,,,,,,,,,,,,,,,,,,,,,,,,,,,,,,,,,,,,,,,,,,,,,,,,,,,,,,,,,286.78304160002153,None,288.2954605300794,None,288.30337380000856,None,288.30337380000856,None,290.01309989998117,None,3,1,0.6524439000058919,290.01309989998117,None,,001,2021_Jan_23_2327,GuessTheSound,2020.2.10,59.404117312326704,
,3,Initial/Doubled/Clap_A.wav,,,,,,,,,0,42,42,42,,,,,,,,,,,,,,,,,,,,,,,,,,,,,,,,,,,,,,,,,,,,,,,,,,,,,,,,,,,,,,,,,,,,,,,,,,,,,,,,,,,,,,,,,,,,,290.6974195999792,None,292.2285824600607,None,292.221251900075,None,292.221251900075,None,294.729784199968,None,3,1,0.44500790000893176,294.729784199968,None,,001,2021_Jan_23_2327,GuessTheSound,2020.2.10,59.404117312326704,
,1,Initial/Doubled/Writing_A.wav,,,,,,,,,0,43,43,43,,,,,,,,,,,,,,,,,,,,,,,,,,,,,,,,,,,,,,,,,,,,,,,,,,,,,,,,,,,,,,,,,,,,,,,,,,,,,,,,,,,,,,,,,,,,,295.19530510006007,None,296.7124280599877,None,296.71060210000724,None,296.71060210000724,None,299.41305440000724,None,3,0,0.4380769000854343,299.41305440000724,None,,001,2021_Jan_23_2327,GuessTheSound,2020.2.10,59.404117312326704,
,3,Initial/Doubled/Chomp_A.wav,,,,,,,,,0,44,44,44,,,,,,,,,,,,,,,,,,,,,,,,,,,,,,,,,,,,,,,,,,,,,,,,,,,,,,,,,,,,,,,,,,,,,,,,,,,,,,,,,,,,,,,,,,,,,299.8785666000331,None,301.3956603599712,None,301.3923419000348,None,301.3923419000348,None,304.07952919998206,None,3,1,0.510866199969314,304.07952919998206,None,,001,2021_Jan_23_2327,GuessTheSound,2020.2.10,59.404117312326704,
,3,Initial/Doubled/CarStart_A.wav,,,,,,,,,0,45,45,45,,,,,,,,,,,,,,,,,,,,,,,,,,,,,,,,,,,,,,,,,,,,,,,,,,,,,,,,,,,,,,,,,,,,,,,,,,,,,,,,,,,,,,,,,,,,,304.61216650006827,None,306.12876156005075,None,306.1351635999745,None,306.1351635999745,None,308.6463980000699,None,3,1,0.3599040999542922,308.6463980000699,None,,001,2021_Jan_23_2327,GuessTheSound,2020.2.10,59.404117312326704,
,1,Initial/NoRepeat/Fireworks.wav,,,,,,,,,0,46,46,46,,,,,,,,,,,,,,,,,,,,,,,,,,,,,,,,,,,,,,,,,,,,,,,,,,,,,,,,,,,,,,,,,,,,,,,,,,,,,,,,,,,,,,,,,,,,,309.0281144999899,None,310.5454528600443,None,310.5434870000463,None,310.5434870000463,None,313.5130171000492,None,3,0,0.3630823000567034,313.5130171000492,None,,001,2021_Jan_23_2327,GuessTheSound,2020.2.10,59.404117312326704,
,3,Initial/NoRepeat/Toilet_B.wav,,,,,,,,,0,47,47,47,,,,,,,,,,,,,,,,,,,,,,,,,,,,,,,,,,,,,,,,,,,,,,,,,,,,,,,,,,,,,,,,,,,,,,,,,,,,,,,,,,,,,,,,,,,,,313.89716419996694,None,315.4286932600429,None,315.433530600043,None,315.433530600043,None,318.36289099999703,None,3,1,0.052416599937714636,318.36289099999703,None,,001,2021_Jan_23_2327,GuessTheSound,2020.2.10,59.404117312326704,
,3,Initial/Repeat/Bagpipe.wav,,,,,,,,,0,48,48,48,,,,,,,,,,,,,,,,,,,,,,,,,,,,,,,,,,,,,,,,,,,,,,,,,,,,,,,,,,,,,,,,,,,,,,,,,,,,,,,,,,,,,,,,,,,,,318.4471402000636,None,319.9769245600095,None,319.968256299966,None,319.968256299966,None,322.34615370002575,None,3,1,1.0832416000775993,322.34615370002575,None,,001,2021_Jan_23_2327,GuessTheSound,2020.2.10,59.404117312326704,
,3,Initial/NoRepeat/Helicopter_A.wav,,,,,,,,,0,49,49,49,,,,,,,,,,,,,,,,,,,,,,,,,,,,,,,,,,,,,,,,,,,,,,,,,,,,,,,,,,,,,,,,,,,,,,,,,,,,,,,,,,,,,,,,,,,,,323.4491330999881,None,324.97855845999436,None,324.98329060000833,None,324.98329060000833,None,327.44578790001106,None,3,1,1.5524985999800265,327.44578790001106,None,,001,2021_Jan_23_2327,GuessTheSound,2020.2.10,59.404117312326704,
,3,Initial/Doubled/Dog_A.wav,,,,,,,,,0,50,50,50,,,,,,,,,,,,,,,,,,,,,,,,,,,,,,,,,,,,,,,,,,,,,,,,,,,,,,,,,,,,,,,,,,,,,,,,,,,,,,,,,,,,,,,,,,,,,329.02844250004273,None,330.54539915998464,None,330.55412850005087,None,330.55412850005087,None,333.1624035000568,None,3,1,0.28541419992689043,333.1624035000568,None,,001,2021_Jan_23_2327,GuessTheSound,2020.2.10,59.404117312326704,
,3,Test/Foils/Wind_B.wav,,,,,,,,,0,51,51,51,,,,,,,,,,,,,,,,,,,,,,,,,,,,,,,,,,,,,,,,,,,,,,,,,,,,,,,,,,,,,,,,,,,,,,,,,,,,,,,,,,,,,,,,,,,,,333.4628195000114,None,335.0284686199855,None,335.02533099998254,None,335.02533099998254,None,337.762502699974,None,3,1,0.2961962999543175,337.762502699974,None,,001,2021_Jan_23_2327,GuessTheSound,2020.2.10,59.404117312326704,
,1,Initial/Doubled/Chime_A.wav,,,,,,,,,0,52,52,52,,,,,,,,,,,,,,,,,,,,,,,,,,,,,,,,,,,,,,,,,,,,,,,,,,,,,,,,,,,,,,,,,,,,,,,,,,,,,,,,,,,,,,,,,,,,,338.07854430004954,None,339.5952542599756,None,339.5943837000523,None,339.5943837000523,None,342.4296438000165,None,3,0,0.27837740001268685,342.4296438000165,None,,001,2021_Jan_23_2327,GuessTheSound,2020.2.10,59.404117312326704,
,2,Laugh_C.wav,,,,,,,,,0,53,53,53,,,,,,,,,,,,,,,,,,,,,,,,,,,,,,,,,,,,,,,,,,,,,,,,,,,,,,,,,,,,,,,,,,,,,,,,,,,,,,,,,,,,,,,,,,,,,342.7286677999655,None,344.24518296003805,None,344.245651400066,None,344.245651400066,None,347.1122577000642,None,3,0,0.3660993999801576,347.1122577000642,None,,001,2021_Jan_23_2327,GuessTheSound,2020.2.10,59.404117312326704,
,2,Cough_D.wav,,,,,,,,,0,54,54,54,,,,,,,,,,,,,,,,,,,,,,,,,,,,,,,,,,,,,,,,,,,,,,,,,,,,,,,,,,,,,,,,,,,,,,,,,,,,,,,,,,,,,,,,,,,,,347.4957117000595,None,349.0280190600082,None,349.02091870002914,None,349.02091870002914,None,350.7959213000722,None,3,0,0.6532882999163121,350.7959213000722,None,,001,2021_Jan_23_2327,GuessTheSound,2020.2.10,59.404117312326704,
,1,Test/Foils/Buzz.wav,,,,,,,,,0,55,55,55,,,,,,,,,,,,,,,,,,,,,,,,,,,,,,,,,,,,,,,,,,,,,,,,,,,,,,,,,,,,,,,,,,,,,,,,,,,,,,,,,,,,,,,,,,,,,351.47962520003784,None,352.99492943006334,None,353.00089040002786,None,353.00089040002786,None,355.31247380003333,None,3,0,0.592941299895756,355.31247380003333,None,,001,2021_Jan_23_2327,GuessTheSound,2020.2.10,59.404117312326704,
,3,Initial/Repeat/IceDrop.wav,,,,,,,,,0,56,56,56,,,,,,,,,,,,,,,,,,,,,,,,,,,,,,,,,,,,,,,,,,,,,,,,,,,,,,,,,,,,,,,,,,,,,,,,,,,,,,,,,,,,,,,,,,,,,355.9282549000345,None,357.44493466007987,None,357.4442216999596,None,357.4442216999596,None,360.19537209998816,None,3,1,0.6002012999961153,360.19537209998816,None,,001,2021_Jan_23_2327,GuessTheSound,2020.2.10,59.404117312326704,
,1,Initial/NoRepeat/Toilet_B.wav,,,,,,,,,0,57,57,57,,,,,,,,,,,,,,,,,,,,,,,,,,,,,,,,,,,,,,,,,,,,,,,,,,,,,,,,,,,,,,,,,,,,,,,,,,,,,,,,,,,,,,,,,,,,,360.8154402000364,None,362.34499725999774,None,362.3404562000651,None,362.3404562000651,None,365.26248190004844,None,3,0,0.25969550001900643,365.26248190004844,None,,001,2021_Jan_23_2327,GuessTheSound,2020.2.10,59.404117312326704,
,2,CarStart_D.wav,,,,,,,,,0,58,58,58,,,,,,,,,,,,,,,,,,,,,,,,,,,,,,,,,,,,,,,,,,,,,,,,,,,,,,,,,,,,,,,,,,,,,,,,,,,,,,,,,,,,,,,,,,,,,365.55000549997203,None,367.06140702996635,None,367.0678520000074,None,367.0678520000074,None,370.12892629997805,None,3,0,0.44108240003697574,370.12892629997805,None,,001,2021_Jan_23_2327,GuessTheSound,2020.2.10,59.404117312326704,
,2,Chomp_B.wav,,,,,,,,,0,59,59,59,,,,,,,,,,,,,,,,,,,,,,,,,,,,,,,,,,,,,,,,,,,,,,,,,,,,,,,,,,,,,,,,,,,,,,,,,,,,,,,,,,,,,,,,,,,,,370.59655730007216,None,372.127720260038,None,372.12091250007506,None,372.12091250007506,None,374.72904850007035,None,3,0,0.7999957000138238,374.72904850007035,None,,001,2021_Jan_23_2327,GuessTheSound,2020.2.10,59.404117312326704,
,1,Initial/Doubled/Clap_A.wav,,,,,,,,,0,60,60,60,,,,,,,,,,,,,,,,,,,,,,,,,,,,,,,,,,,,,,,,,,,,,,,,,,,,,,,,,,,,,,,,,,,,,,,,,,,,,,,,,,,,,,,,,,,,,375.5493303000694,None,377.06102622997713,None,377.0610575999599,None,377.0610575999599,None,379.56239800003823,None,3,0,0.4554049000144005,379.56239800003823,None,,001,2021_Jan_23_2327,GuessTheSound,2020.2.10,59.404117312326704,
,3,Initial/Doubled/Bubbles_A.wav,,,,,,,,,0,61,61,61,,,,,,,,,,,,,,,,,,,,,,,,,,,,,,,,,,,,,,,,,,,,,,,,,,,,,,,,,,,,,,,,,,,,,,,,,,,,,,,,,,,,,,,,,,,,,380.0446062000701,None,381.5615041600307,None,381.5702253000345,None,381.5702253000345,None,383.9954822000582,None,3,1,0.13919830007944256,383.9954822000582,None,,001,2021_Jan_23_2327,GuessTheSound,2020.2.10,59.404117312326704,
,2,Dog_C.wav,,,,,,,,,0,62,62,62,,,,,,,,,,,,,,,,,,,,,,,,,,,,,,,,,,,,,,,,,,,,,,,,,,,,,,,,,,,,,,,,,,,,,,,,,,,,,,,,,,,,,,,,,,,,,384.16256930003874,None,385.69516855999825,None,385.69758789998014,None,385.69758789998014,None,387.7121364000486,None,3,0,0.4399988999357447,387.7121364000486,None,,001,2021_Jan_23_2327,GuessTheSound,2020.2.10,59.404117312326704,
,2,Laugh_D.wav,,,,,,,,,0,63,63,63,,,,,,,,,,,,,,,,,,,,,,,,,,,,,,,,,,,,,,,,,,,,,,,,,,,,,,,,,,,,,,,,,,,,,,,,,,,,,,,,,,,,,,,,,,,,,388.17748670000583,None,389.694758360018,None,389.70589890005067,None,389.70589890005067,None,392.32889770006295,None,3,0,0.4124512999551371,392.32889770006295,None,,001,2021_Jan_23_2327,GuessTheSound,2020.2.10,59.404117312326704,
,1,Initial/NoRepeat/Helicopter_A.wav,,,,,,,,,0,64,64,64,,,,,,,,,,,,,,,,,,,,,,,,,,,,,,,,,,,,,,,,,,,,,,,,,,,,,,,,,,,,,,,,,,,,,,,,,,,,,,,,,,,,,,,,,,,,,392.76134059997275,None,394.2779479600489,None,394.27347999997437,None,394.27347999997437,None,396.7287445999682,None,3,0,1.2521111000096425,396.7287445999682,None,,001,2021_Jan_23_2327,GuessTheSound,2020.2.10,59.404117312326704,
,2,Cough_C.wav,,,,,,,,,0,65,65,65,,,,,,,,,,,,,,,,,,,,,,,,,,,,,,,,,,,,,,,,,,,,,,,,,,,,,,,,,,,,,,,,,,,,,,,,,,,,,,,,,,,,,,,,,,,,,398.0116325999843,None,399.52787665997164,None,399.53161279996857,None,399.53161279996857,None,401.011646799976,None,3,0,0.25318919995334,401.011646799976,None,,001,2021_Jan_23_2327,GuessTheSound,2020.2.10,59.404117312326704,
,3,Test/Foils/PaperRip.wav,,,,,,,,,0,66,66,66,,,,,,,,,,,,,,,,,,,,,,,,,,,,,,,,,,,,,,,,,,,,,,,,,,,,,,,,,,,,,,,,,,,,,,,,,,,,,,,,,,,,,,,,,,,,,401.2946313000284,None,402.81142466000745,None,402.81789850001223,None,402.81789850001223,None,404.4120781000238,None,3,1,1.45825549995061,404.4120781000238,None,,001,2021_Jan_23_2327,GuessTheSound,2020.2.10,59.404117312326704,
,1,Test/Foils/Wind_B.wav,,,,,,,,,0,67,67,67,,,,,,,,,,,,,,,,,,,,,,,,,,,,,,,,,,,,,,,,,,,,,,,,,,,,,,,,,,,,,,,,,,,,,,,,,,,,,,,,,,,,,,,,,,,,,405.8955977000296,None,407.41147743001346,None,407.4219909000676,None,407.4219909000676,None,410.1621244000271,None,3,0,0.2452569999732077,410.1621244000271,None,,001,2021_Jan_23_2327,GuessTheSound,2020.2.10,59.404117312326704,
,2,CarStart_B.wav,,,,,,,,,0,68,68,68,,,,,,,,,,,,,,,,,,,,,,,,,,,,,,,,,,,,,,,,,,,,,,,,,,,,,,,,,,,,,,,,,,,,,,,,,,,,,,,,,,,,,,,,,,,,,410.4292231000727,None,411.94403273005736,None,411.9500734000467,None,411.9500734000467,None,414.5118791999994,None,3,0,0.3090026000281796,414.5118791999994,None,,001,2021_Jan_23_2327,GuessTheSound,2020.2.10,59.404117312326704,
,2,Chomp_C.wav,,,,,,,,,0,69,69,69,,,,,,,,,,,,,,,,,,,,,,,,,,,,,,,,,,,,,,,,,,,,,,,,,,,,,,,,,,,,,,,,,,,,,,,,,,,,,,,,,,,,,,,,,,,,,414.84557550004683,None,416.37809196007436,None,416.3838407000294,None,416.3838407000294,None,419.16177840007003,None,3,0,0.269016099977307,419.16177840007003,None,,001,2021_Jan_23_2327,GuessTheSound,2020.2.10,59.404117312326704,
,3,ManWhistle_C.wav,,,,,,,,,0,70,70,70,,,,,,,,,,,,,,,,,,,,,,,,,,,,,,,,,,,,,,,,,,,,,,,,,,,,,,,,,,,,,,,,,,,,,,,,,,,,,,,,,,,,,,,,,,,,,419.4652644000016,None,420.9771149300388,None,420.9772162999725,None,420.9772162999725,None,422.47862209996674,None,3,1,0.436779500101693,422.47862209996674,None,,001,2021_Jan_23_2327,GuessTheSound,2020.2.10,59.404117312326704,
,1,Test/Foils/Buzz.wav,,,,,,,,,0,71,71,71,,,,,,,,,,,,,,,,,,,,,,,,,,,,,,,,,,,,,,,,,,,,,,,,,,,,,,,,,,,,,,,,,,,,,,,,,,,,,,,,,,,,,,,,,,,,,422.9442750000162,None,424.46100086006334,None,424.4580388000468,None,424.4580388000468,None,426.76209199998993,None,3,0,0.31887970003299415,426.76209199998993,None,,001,2021_Jan_23_2327,GuessTheSound,2020.2.10,59.404117312326704,
,3,Initial/NoRepeat/Droplet_B.wav,,,,,,,,,0,72,72,72,,,,,,,,,,,,,,,,,,,,,,,,,,,,,,,,,,,,,,,,,,,,,,,,,,,,,,,,,,,,,,,,,,,,,,,,,,,,,,,,,,,,,,,,,,,,,427.11066070001107,None,428.6279564599739,None,428.6342513000127,None,428.6342513000127,None,430.79483020002954,None,3,1,0.5469755999511108,430.79483020002954,None,,001,2021_Jan_23_2327,GuessTheSound,2020.2.10,59.404117312326704,
,3,Initial/Doubled/Guitar_A.wav,,,,,,,,,0,73,73,73,,,,,,,,,,,,,,,,,,,,,,,,,,,,,,,,,,,,,,,,,,,,,,,,,,,,,,,,,,,,,,,,,,,,,,,,,,,,,,,,,,,,,,,,,,,,,431.3641542000696,None,432.8941022599814,None,432.9001491999952,None,432.9001491999952,None,435.51148270000704,None,3,1,1.1345364999724552,435.51148270000704,None,,001,2021_Jan_23_2327,GuessTheSound,2020.2.10,59.404117312326704,
,1,Initial/NoRepeat/Toilet_B.wav,,,,,,,,,0,74,74,74,,,,,,,,,,,,,,,,,,,,,,,,,,,,,,,,,,,,,,,,,,,,,,,,,,,,,,,,,,,,,,,,,,,,,,,,,,,,,,,,,,,,,,,,,,,,,436.6653523000423,None,438.177233529964,None,438.17728850001004,None,438.17728850001004,None,441.09482510003727,None,3,0,0.43237490009050816,441.09482510003727,None,,001,2021_Jan_23_2327,GuessTheSound,2020.2.10,59.404117312326704,
,2,Dog_D.wav,,,,,,,,,0,75,75,75,,,,,,,,,,,,,,,,,,,,,,,,,,,,,,,,,,,,,,,,,,,,,,,,,,,,,,,,,,,,,,,,,,,,,,,,,,,,,,,,,,,,,,,,,,,,,441.54514609999023,None,443.06028493003686,None,443.0653563999804,None,443.0653563999804,None,445.07871120003983,None,3,0,0.3728721000952646,445.07871120003983,None,,001,2021_Jan_23_2327,GuessTheSound,2020.2.10,59.404117312326704,
,1,Initial/Doubled/Clap_A.wav,,,,,,,,,0,76,76,76,,,,,,,,,,,,,,,,,,,,,,,,,,,,,,,,,,,,,,,,,,,,,,,,,,,,,,,,,,,,,,,,,,,,,,,,,,,,,,,,,,,,,,,,,,,,,445.47802699997555,None,446.99404866001566,None,446.98789750004653,None,446.98789750004653,None,449.49501449998934,None,3,0,0.3490499999606982,449.49501449998934,None,,001,2021_Jan_23_2327,GuessTheSound,2020.2.10,59.404117312326704,
,1,Test/Foils/PaperRip.wav,,,,,,,,,0,77,77,77,,,,,,,,,,,,,,,,,,,,,,,,,,,,,,,,,,,,,,,,,,,,,,,,,,,,,,,,,,,,,,,,,,,,,,,,,,,,,,,,,,,,,,,,,,,,,449.8610438000178,None,451.3609326300095,None,451.37170809996314,None,451.37170809996314,None,452.96114520006813,None,3,0,0.2848073000786826,452.96114520006813,None,,001,2021_Jan_23_2327,GuessTheSound,2020.2.10,59.404117312326704,
,1,Test/Foils/Wind_B.wav,,,,,,,,,0,78,78,78,,,,,,,,,,,,,,,,,,,,,,,,,,,,,,,,,,,,,,,,,,,,,,,,,,,,,,,,,,,,,,,,,,,,,,,,,,,,,,,,,,,,,,,,,,,,,453.26068760000635,None,454.77748696003107,None,454.77417059999425,None,454.77417059999425,None,457.51159700006247,None,3,0,0.060339400079101324,457.51159700006247,None,,001,2021_Jan_23_2327,GuessTheSound,2020.2.10,59.404117312326704,
,1,Initial/NoRepeat/Helicopter_A.wav,,,,,,,,,0,79,79,79,,,,,,,,,,,,,,,,,,,,,,,,,,,,,,,,,,,,,,,,,,,,,,,,,,,,,,,,,,,,,,,,,,,,,,,,,,,,,,,,,,,,,,,,,,,,,457.59389400004875,None,459.1106593600474,None,459.10335019999184,None,459.10335019999184,None,461.56142100004945,None,3,0,2.961452400078997,461.56142100004945,None,,001,2021_Jan_23_2327,GuessTheSound,2020.2.10,59.404117312326704,
,3,Initial/NoRepeat/Goat_B.wav,,,,,,,,,0,80,80,80,,,,,,,,,,,,,,,,,,,,,,,,,,,,,,,,,,,,,,,,,,,,,,,,,,,,,,,,,,,,,,,,,,,,,,,,,,,,,,,,,,,,,,,,,,,,,464.54385989997536,None,466.06016446007413,None,466.05131390003953,None,466.05131390003953,None,468.1938070000615,None,3,1,0.32602569996379316,468.1938070000615,None,,001,2021_Jan_23_2327,GuessTheSound,2020.2.10,59.404117312326704,
,2,Initial/Repeat/ManWhistle.wav,,,,,,,,,0,81,81,81,,,,,,,,,,,,,,,,,,,,,,,,,,,,,,,,,,,,,,,,,,,,,,,,,,,,,,,,,,,,,,,,,,,,,,,,,,,,,,,,,,,,,,,,,,,,,468.5431272999849,None,470.05927975997326,None,470.0555284000002,None,470.0555284000002,None,472.27683210000396,None,3,0,0.3655663999961689,472.27683210000396,None,,001,2021_Jan_23_2327,GuessTheSound,2020.2.10,59.404117312326704,
,3,Test/Foils/Bullfrog.wav,,,,,,,,,0,82,82,82,,,,,,,,,,,,,,,,,,,,,,,,,,,,,,,,,,,,,,,,,,,,,,,,,,,,,,,,,,,,,,,,,,,,,,,,,,,,,,,,,,,,,,,,,,,,,472.6597339999862,None,474.1765849600546,None,474.1737845999887,None,474.1737845999887,None,477.22779310005717,None,3,1,0.3261828999966383,477.22779310005717,None,,001,2021_Jan_23_2327,GuessTheSound,2020.2.10,59.404117312326704,
,3,Initial/NoRepeat/Thunder_A.wav,,,,,,,,,0,83,83,83,,,,,,,,,,,,,,,,,,,,,,,,,,,,,,,,,,,,,,,,,,,,,,,,,,,,,,,,,,,,,,,,,,,,,,,,,,,,,,,,,,,,,,,,,,,,,477.58296799997333,None,479.1101993600372,None,479.10650430002715,None,479.10650430002715,None,482.094418499968,None,3,1,1.0265556999947876,482.094418499968,None,,001,2021_Jan_23_2327,GuessTheSound,2020.2.10,59.404117312326704,
,3,Initial/NoRepeat/Faucet_A.wav,,,,,,,,,0,84,84,84,,,,,,,,,,,,,,,,,,,,,,,,,,,,,,,,,,,,,,,,,,,,,,,,,,,,,,,,,,,,,,,,,,,,,,,,,,,,,,,,,,,,,,,,,,,,,483.14360980002675,None,484.67703318999844,None,484.68216440000106,None,484.68216440000106,None,487.1610993000213,None,3,1,0.41840500000398606,487.1610993000213,None,,001,2021_Jan_23_2327,GuessTheSound,2020.2.10,59.404117312326704,
,3,Initial/Repeat/Phone_A.wav,,,,,,,,,0,85,85,85,,,,,,,,,,,,,,,,,,,,,,,,,,,,,,,,,,,,,,,,,,,,,,,,,,,,,,,,,,,,,,,,,,,,,,,,,,,,,,,,,,,,,,,,,,,,,487.5931857000105,None,489.1101515600225,None,489.11298019997776,None,489.11298019997776,None,492.0611329000676,None,3,1,0.18944640003610402,492.0611329000676,None,,001,2021_Jan_23_2327,GuessTheSound,2020.2.10,59.404117312326704,
,1,Test/Foils/PaperRip.wav,,,,,,,,,0,86,86,86,,,,,,,,,,,,,,,,,,,,,,,,,,,,,,,,,,,,,,,,,,,,,,,,,,,,,,,,,,,,,,,,,,,,,,,,,,,,,,,,,,,,,,,,,,,,,492.27685310004745,None,493.7770394299761,None,493.7853982000379,None,493.7853982000379,None,495.3777448000619,None,3,0,1.0999088999815285,495.3777448000619,None,,001,2021_Jan_23_2327,GuessTheSound,2020.2.10,59.404117312326704,
,3,Initial/Doubled/Growl_A.wav,,,,,,,,,0,87,87,87,,,,,,,,,,,,,,,,,,,,,,,,,,,,,,,,,,,,,,,,,,,,,,,,,,,,,,,,,,,,,,,,,,,,,,,,,,,,,,,,,,,,,,,,,,,,,496.49625009996817,None,498.02678666005374,None,498.02768820000347,None,498.02768820000347,None,500.87762649997603,None,3,1,0.3676816000370309,500.87762649997603,None,,001,2021_Jan_23_2327,GuessTheSound,2020.2.10,59.404117312326704,
,3,Initial/Repeat/Howl.wav,,,,,,,,,0,88,88,88,,,,,,,,,,,,,,,,,,,,,,,,,,,,,,,,,,,,,,,,,,,,,,,,,,,,,,,,,,,,,,,,,,,,,,,,,,,,,,,,,,,,,,,,,,,,,501.2755172000034,None,502.8090118900523,None,502.80250920006074,None,502.80250920006074,None,505.56019960006233,None,3,1,0.3950545999687165,505.56019960006233,None,,001,2021_Jan_23_2327,GuessTheSound,2020.2.10,59.404117312326704,
,3,Initial/Repeat/Whistle_A.wav,,,,,,,,,0,89,89,89,,,,,,,,,,,,,,,,,,,,,,,,,,,,,,,,,,,,,,,,,,,,,,,,,,,,,,,,,,,,,,,,,,,,,,,,,,,,,,,,,,,,,,,,,,,,,505.97564960003365,None,507.4933134600054,None,507.49924649996683,None,507.49924649996683,None,508.994297600002,None,3,1,0.44298769999295473,508.994297600002,None,,001,2021_Jan_23_2327,GuessTheSound,2020.2.10,59.404117312326704,
,2,Goat_A.wav,,,,,,,,,0,90,90,90,,,,,,,,,,,,,,,,,,,,,,,,,,,,,,,,,,,,,,,,,,,,,,,,,,,,,,,,,,,,,,,,,,,,,,,,,,,,,,,,,,,,,,,,,,,,,509.4616954000667,None,510.97626592997693,None,510.9838576000184,None,510.9838576000184,None,513.4945173000451,None,3,0,0.4460525999311358,513.4945173000451,None,,001,2021_Jan_23_2327,GuessTheSound,2020.2.10,59.404117312326704,
,2,ManWhistle_D.wav,,,,,,,,,0,91,91,91,,,,,,,,,,,,,,,,,,,,,,,,,,,,,,,,,,,,,,,,,,,,,,,,,,,,,,,,,,,,,,,,,,,,,,,,,,,,,,,,,,,,,,,,,,,,,513.9663819000125,None,515.4935039600591,None,515.4936011000536,None,515.4936011000536,None,517.1105823999969,None,3,0,0.5045303999213502,517.1105823999969,None,,001,2021_Jan_23_2327,GuessTheSound,2020.2.10,59.404117312326704,
,3,Initial/Repeat/Cup.wav,,,,,,,,,0,92,92,92,,,,,,,,,,,,,,,,,,,,,,,,,,,,,,,,,,,,,,,,,,,,,,,,,,,,,,,,,,,,,,,,,,,,,,,,,,,,,,,,,,,,,,,,,,,,,517.645401500049,None,519.1602066299995,None,519.1599566000514,None,519.1599566000514,None,520.4941523000598,None,3,1,0.4240439999848604,520.4941523000598,None,,001,2021_Jan_23_2327,GuessTheSound,2020.2.10,59.404117312326704,
,2,Phone_C.wav,,,,,,,,,0,93,93,93,,,,,,,,,,,,,,,,,,,,,,,,,,,,,,,,,,,,,,,,,,,,,,,,,,,,,,,,,,,,,,,,,,,,,,,,,,,,,,,,,,,,,,,,,,,,,520.9434120999649,None,522.4602370600683,None,522.4673472000286,None,522.4673472000286,None,525.2441632000264,None,3,0,0.8745356999570504,525.2441632000264,None,,001,2021_Jan_23_2327,GuessTheSound,2020.2.10,59.404117312326704,
,2,Growl_B.wav,,,,,,,,,0,94,94,94,,,,,,,,,,,,,,,,,,,,,,,,,,,,,,,,,,,,,,,,,,,,,,,,,,,,,,,,,,,,,,,,,,,,,,,,,,,,,,,,,,,,,,,,,,,,,526.1431168999989,None,527.6599571599859,None,527.6678185999626,None,527.6678185999626,None,530.6445464000572,None,3,0,0.36172250006347895,530.6445464000572,None,,001,2021_Jan_23_2327,GuessTheSound,2020.2.10,59.404117312326704,
,1,Test/Foils/Bullfrog.wav,,,,,,,,,0,95,95,95,,,,,,,,,,,,,,,,,,,,,,,,,,,,,,,,,,,,,,,,,,,,,,,,,,,,,,,,,,,,,,,,,,,,,,,,,,,,,,,,,,,,,,,,,,,,,531.0265353000723,None,532.5435592600611,None,532.5379865000723,None,532.5379865000723,None,535.5942560000112,None,3,0,0.3612688999855891,535.5942560000112,None,,001,2021_Jan_23_2327,GuessTheSound,2020.2.10,59.404117312326704,
,1,Initial/NoRepeat/Thunder_A.wav,,,,,,,,,0,96,96,96,,,,,,,,,,,,,,,,,,,,,,,,,,,,,,,,,,,,,,,,,,,,,,,,,,,,,,,,,,,,,,,,,,,,,,,,,,,,,,,,,,,,,,,,,,,,,535.976075500017,None,537.4933491600445,None,537.4907814000035,None,537.4907814000035,None,540.4773313000333,None,3,0,0.3183966000797227,540.4773313000333,None,,001,2021_Jan_23_2327,GuessTheSound,2020.2.10,59.404117312326704,
,1,Initial/Repeat/Howl.wav,,,,,,,,,0,97,97,97,,,,,,,,,,,,,,,,,,,,,,,,,,,,,,,,,,,,,,,,,,,,,,,,,,,,,,,,,,,,,,,,,,,,,,,,,,,,,,,,,,,,,,,,,,,,,540.8098094000015,None,542.3266107600416,None,542.3221149999881,None,542.3221149999881,None,545.0772888000356,None,3,0,0.35985179990530014,545.0772888000356,None,,001,2021_Jan_23_2327,GuessTheSound,2020.2.10,59.404117312326704,
,2,Goat_C.wav,,,,,,,,,0,98,98,98,,,,,,,,,,,,,,,,,,,,,,,,,,,,,,,,,,,,,,,,,,,,,,,,,,,,,,,,,,,,,,,,,,,,,,,,,,,,,,,,,,,,,,,,,,,,,545.4599080999615,None,546.9595528300736,None,546.9651328000473,None,546.9651328000473,None,548.7774529000744,None,3,0,0.5289011999266222,548.7774529000744,None,,001,2021_Jan_23_2327,GuessTheSound,2020.2.10,59.404117312326704,
,1,Initial/NoRepeat/Faucet_A.wav,,,,,,,,,0,99,99,99,,,,,,,,,,,,,,,,,,,,,,,,,,,,,,,,,,,,,,,,,,,,,,,,,,,,,,,,,,,,,,,,,,,,,,,,,,,,,,,,,,,,,,,,,,,,,549.3275834000669,None,550.8431041299948,None,550.8546242000302,None,550.8546242000302,None,553.3439952000044,None,3,0,0.3425345999421552,553.3439952000044,None,,001,2021_Jan_23_2327,GuessTheSound,2020.2.10,59.404117312326704,
,2,Whistle_B.wav,,,,,,,,,0,100,100,100,,,,,,,,,,,,,,,,,,,,,,,,,,,,,,,,,,,,,,,,,,,,,,,,,,,,,,,,,,,,,,,,,,,,,,,,,,,,,,,,,,,,,,,,,,,,,553.7114486000501,None,555.226016130054,None,555.226364400005,None,555.226364400005,None,557.9604511000216,None,3,0,0.4113180000567809,557.9604511000216,None,,001,2021_Jan_23_2327,GuessTheSound,2020.2.10,59.404117312326704,
,2,Growl_D.wav,,,,,,,,,0,101,101,101,,,,,,,,,,,,,,,,,,,,,,,,,,,,,,,,,,,,,,,,,,,,,,,,,,,,,,,,,,,,,,,,,,,,,,,,,,,,,,,,,,,,,,,,,,,,,558.3929793999996,None,559.9096361599863,None,559.9183313000249,None,559.9183313000249,None,562.8422395000234,None,3,0,0.36425740004051477,562.8422395000234,None,,001,2021_Jan_23_2327,GuessTheSound,2020.2.10,59.404117312326704,
,3,Initial/NoRepeat/Footsteps_B.wav,,,,,,,,,0,102,102,102,,,,,,,,,,,,,,,,,,,,,,,,,,,,,,,,,,,,,,,,,,,,,,,,,,,,,,,,,,,,,,,,,,,,,,,,,,,,,,,,,,,,,,,,,,,,,563.2262364999624,None,564.7420067600674,None,564.7506247999845,None,564.7506247999845,None,567.4098988999613,None,3,1,0.17510110000148416,567.4098988999613,None,,001,2021_Jan_23_2327,GuessTheSound,2020.2.10,59.404117312326704,
,2,Phone_D.wav,,,,,,,,,0,103,103,103,,,,,,,,,,,,,,,,,,,,,,,,,,,,,,,,,,,,,,,,,,,,,,,,,,,,,,,,,,,,,,,,,,,,,,,,,,,,,,,,,,,,,,,,,,,,,567.6115922000026,None,569.1428619600833,None,569.1508935999591,None,569.1508935999591,None,571.6940146000125,None,3,0,0.49006360000930727,571.6940146000125,None,,001,2021_Jan_23_2327,GuessTheSound,2020.2.10,59.404117312326704,
,1,Test/Foils/Bullfrog.wav,,,,,,,,,0,104,104,104,,,,,,,,,,,,,,,,,,,,,,,,,,,,,,,,,,,,,,,,,,,,,,,,,,,,,,,,,,,,,,,,,,,,,,,,,,,,,,,,,,,,,,,,,,,,,572.209165600012,None,573.7264191600029,None,573.7250550000463,None,573.7250550000463,None,576.7768797000172,None,3,0,0.2860741000622511,576.7768797000172,None,,001,2021_Jan_23_2327,GuessTheSound,2020.2.10,59.404117312326704,
,,,,,,,,,,,,,,,,,,,,,,,,,,,,,,,,,,,,,,,,,,,,,,,,,,,,,,,,,,,,,,,,,,,,,,,,,,,,,,,,,,,,,,,,,,,,,,,,,,,,,,,,,,,577.0927117000101,None,,,,,,,,,,,,,,,,,,,,
