File,Correct,SoundFile5,Type,trials_2.thisRepN,trials_2.thisTrialN,trials_2.thisN,trials_2.thisIndex,PracticeTrials.thisRepN,PracticeTrials.thisTrialN,PracticeTrials.thisN,PracticeTrials.thisIndex,trials.thisRepN,trials.thisTrialN,trials.thisN,trials.thisIndex,InstructionTxt.started,InstructionTxt.stopped,WelcomContinue.started,WelcomContinue.stopped,VolumeBeginTxt.started,VolumeBeginTxt.stopped,VolumeContinueKey.keys,VolumeContinueKey.rt,VolumeContinueKey.started,VolumeContinueKey.stopped,text.started,text.stopped,Music.started,Music.stopped,AdjustContinue.started,AdjustContinue.stopped,HeadphoneCheckBeing.started,HeadphoneCheckBeing.stopped,HeadphoneContinue.started,HeadphoneContinue.stopped,HeadphoneContinueKey.keys,HeadphoneContinueKey.rt,HeadphoneContinueKey.started,HeadphoneContinueKey.stopped,CheckSound.started,CheckSound.stopped,QuestionTxt.started,QuestionTxt.stopped,CheckTrial.started,CheckTrial.stopped,CrossHeadphone.started,CrossHeadphone.stopped,CheckResp.keys,CheckResp.corr,CheckResp.rt,CheckResp.started,CheckResp.stopped,FeedbackTxt.started,FeedbackTxt.stopped,text_3.started,text_3.stopped,text_4.started,text_4.stopped,key_resp_2.keys,key_resp_2.rt,key_resp_2.started,key_resp_2.stopped,text_5.started,text_5.stopped,text_6.started,text_6.stopped,key_resp_3.keys,key_resp_3.rt,key_resp_3.started,key_resp_3.stopped,InstructionTxt2.started,InstructionTxt2.stopped,WelcomeContinue2.started,WelcomeContinue2.stopped,WelcomeContinueKey2.keys,WelcomeContinueKey2.rt,WelcomeContinueKey2.started,WelcomeContinueKey2.stopped,TrialNumber.started,TrialNumber.stopped,PracticeSound.started,PracticeSound.stopped,PracticeCross.started,PracticeCross.stopped,Practice_resp.keys,Practice_resp.corr,Practice_resp.rt,Practice_resp.started,Practice_resp.stopped,PracticeMssg.started,PracticeMssg.stopped,FeedbackCross.started,FeedbackCross.stopped,Continue.started,Continue.stopped,Options.started,Options.stopped,FeedbackMssg.started,FeedbackMssg.stopped,StartTxt.started,StartTxt.stopped,StartTast.keys,StartTast.rt,StartTast.started,StartTast.stopped,ContinueStart.started,ContinueStart.stopped,no_3.started,no_3.stopped,TargetSound.started,TargetSound.stopped,Cross.started,Cross.stopped,ItemNumber.started,ItemNumber.stopped,text_2.started,text_2.stopped,key_resp.keys,key_resp.corr,key_resp.rt,key_resp.started,key_resp.stopped,participant,session,date,expName,psychopyVersion,frameRate,
,,,,,,,,,,,,,,,,9.41146299999673,None,9.41146299999673,None,11.112009200034663,None,space,1.5847180999699049,11.112009200034663,None,,,,,,,,,,,,,,,,,,,,,,,,,,,,,,,,,,,,,,,,,,,,,,,,,,,,,,,,,,,,,,,,,,,,,,,,,,,,,,,,,,,,,,,,,,,,,,,,,,,001,2021_Feb_14_1757,GuessTheSound,2020.2.10,59.9468631007035,
,,,,,,,,,,,,,,,,,,,,,,,,,,12.788442699995358,None,12.795206500013592,None,12.788442699995358,None,13.91525650001131,None,13.91525650001131,None,space,1.052209599991329,13.91525650001131,None,,,,,,,,,,,,,,,,,,,,,,,,,,,,,,,,,,,,,,,,,,,,,,,,,,,,,,,,,,,,,,,,,,,,,,,,,,,,,,,,,,,,,001,2021_Feb_14_1757,GuessTheSound,2020.2.10,59.9468631007035,
Headphone/t3_2.wav,3,,,0,0,0,5,,,,,,,,,,,,,,,,,,,,,,,,,,,,,,,,,15.078748459997588,None,19.609996900020633,None,15.081147800025064,19.626751600007992,15.081147800025064,19.626751600007992,3,1,0.07952500000828877,19.609996900020633,None,19.72723540000152,None,,,,,,,,,,,,,,,,,,,,,,,,,,,,,,,,,,,,,,,,,,,,,,,,,,,,,,,,,,,,,,,,,,,,,,001,2021_Feb_14_1757,GuessTheSound,2020.2.10,59.9468631007035,
Headphone/t1_1.wav,1,,,0,1,1,0,,,,,,,,,,,,,,,,,,,,,,,,,,,,,,,,,20.743085220013747,None,25.260968299990054,None,20.74088140000822,25.277875400031917,20.74088140000822,25.277875400031917,2,0,0.18132179998792708,25.260968299990054,None,25.476131300034467,None,,,,,,,,,,,,,,,,,,,,,,,,,,,,,,,,,,,,,,,,,,,,,,,,,,,,,,,,,,,,,,,,,,,,,,001,2021_Feb_14_1757,GuessTheSound,2020.2.10,59.9468631007035,
Headphone/t2_1.wav,2,,,0,2,2,2,,,,,,,,,,,,,,,,,,,,,,,,,,,,,,,,,26.494472220039462,None,31.01122879999457,None,26.49377070000628,31.027923100045882,26.49377070000628,31.027923100045882,3,0,3.321147500013467,31.01122879999457,None,34.36141549999593,None,,,,,,,,,,,,,,,,,,,,,,,,,,,,,,,,,,,,,,,,,,,,,,,,,,,,,,,,,,,,,,,,,,,,,,001,2021_Feb_14_1757,GuessTheSound,2020.2.10,59.9468631007035,
Headphone/t1_2.wav,1,,,0,3,3,1,,,,,,,,,,,,,,,,,,,,,,,,,,,,,,,,,35.37751892001833,None,39.89457850001054,None,35.378751200041734,39.92798590002349,35.378751200041734,39.92798590002349,2,0,0.4580392999923788,39.89457850001054,None,40.379271000041626,None,,,,,,,,,,,,,,,,,,,,,,,,,,,,,,,,,,,,,,,,,,,,,,,,,,,,,,,,,,,,,,,,,,,,,,001,2021_Feb_14_1757,GuessTheSound,2020.2.10,59.9468631007035,
Headphone/t3_1.wav,3,,,0,4,4,4,,,,,,,,,,,,,,,,,,,,,,,,,,,,,,,,,41.410923920013005,None,45.92811430001166,None,41.41019620001316,45.94465230003698,41.41019620001316,45.94465230003698,2,0,0.5280281000304967,45.92811430001166,None,46.47889850003412,None,,,,,,,,,,,,,,,,,,,,,,,,,,,,,,,,,,,,,,,,,,,,,,,,,,,,,,,,,,,,,,,,,,,,,,001,2021_Feb_14_1757,GuessTheSound,2020.2.10,59.9468631007035,
Headphone/t2_2.wav,2,,,0,5,5,3,,,,,,,,,,,,,,,,,,,,,,,,,,,,,,,,,47.51091332002542,None,52.02807520003989,None,47.50432450004155,52.04447710001841,47.50432450004155,52.04447710001841,2,1,3.9057594999903813,52.02807520003989,None,55.975162099988665,None,,,,,,,,,,,,,,,,,,,,,,,,,,,,,,,,,,,,,,,,,,,,,,,,,,,,,,,,,,,,,,,,,,,,,,001,2021_Feb_14_1757,GuessTheSound,2020.2.10,59.9468631007035,
,,,,,,,,,,,,,,,,,,,,,,,,,,,,,,,,,,,,,,,,,,,,,,,,,,,,,,,56.97902070003329,None,56.97902070003329,None,space,4.889225700055249,56.97902070003329,None,,,,,,,,,,,,,,,,,,,,,,,,,,,,,,,,,,,,,,,,,,,,,,,,,,,,,,,,,,,,,,001,2021_Feb_14_1757,GuessTheSound,2020.2.10,59.9468631007035,
,,,,,,,,,,,,,,,,,,,,,,,,,,,,,,,,,,,,,,,,,,,,,,,,,,,,,,,,,,,,,,,61.89894240000285,None,61.89894240000285,None,space,1.4412169000133872,61.89894240000285,None,,,,,,,,,,,,,,,,,,,,,,,,,,,,,,,,,,,,,,,,,,,,,,,,,,,,,,001,2021_Feb_14_1757,GuessTheSound,2020.2.10,59.9468631007035,
,,,,,,,,,,,,,,,,,,,,,,,,,,,,,,,,,,,,,,,,,,,,,,,,,,,,,,,,,,,,,,,,,,,,,,,63.366238399990834,None,63.366238399990834,None,space,2.639696400030516,63.366238399990834,None,,,,,,,,,,,,,,,,,,,,,,,,,,,,,,,,,,,,,,,,,,,,,,001,2021_Feb_14_1757,GuessTheSound,2020.2.10,59.9468631007035,
,2,Practice/Seagull_A.wav,New,,,,,0,0,0,0,,,,,,,,,,,,,,,,,,,,,,,,,,,,,,,,,,,,,,,,,,,,,,,,,,,,,,,,,,,,,,,,,,,,66.11108689999674,None,66.11091395998373,None,66.11108689999674,None,3,0,12.664196500030812,68.39763240003958,None,68.39763240003958,None,68.39763240003958,None,68.39763240003958,None,68.39763240003958,None,81.09526219998952,None,,,,,,,,,,,,,,,,,,,,,,,,,001,2021_Feb_14_1757,GuessTheSound,2020.2.10,59.9468631007035,
,2,Practice/Skid_B.wav,New,,,,,0,1,1,1,,,,,,,,,,,,,,,,,,,,,,,,,,,,,,,,,,,,,,,,,,,,,,,,,,,,,,,,,,,,,,,,,,,,82.13407100003678,None,82.12697458000038,None,82.13407100003678,None,3,0,3.16331849998096,84.24401070002932,None,84.24401070002932,None,84.24401070002932,None,84.24401070002932,None,84.24401070002932,None,87.42866780003533,None,,,,,,,,,,,,,,,,,,,,,,,,,001,2021_Feb_14_1757,GuessTheSound,2020.2.10,59.9468631007035,
,1,Practice/Seagull_A.wav,Old,,,,,0,2,2,2,,,,,,,,,,,,,,,,,,,,,,,,,,,,,,,,,,,,,,,,,,,,,,,,,,,,,,,,,,,,,,,,,,,,88.45802210003603,None,88.46050762003287,None,88.45802210003603,None,1,1,0.8158159999875352,90.72734400001355,None,90.72734400001355,None,90.72734400001355,None,90.72734400001355,None,90.72734400001355,None,91.5700586999883,None,,,,,,,,,,,,,,,,,,,,,,,,,001,2021_Feb_14_1757,GuessTheSound,2020.2.10,59.9468631007035,
,2,Practice/Gargle_A.wav,New,,,,,0,3,3,3,,,,,,,,,,,,,,,,,,,,,,,,,,,,,,,,,,,,,,,,,,,,,,,,,,,,,,,,,,,,,,,,,,,,92.61616690002847,None,92.61058638000976,None,92.61616690002847,None,2,1,1.1572851000237279,94.87714170000982,None,94.87714170000982,None,94.87714170000982,None,94.87714170000982,None,94.87714170000982,None,96.06019029999152,None,,,,,,,,,,,,,,,,,,,,,,,,,001,2021_Feb_14_1757,GuessTheSound,2020.2.10,59.9468631007035,
,2,Practice/Gargle_B.wav,Similar,,,,,0,4,4,4,,,,,,,,,,,,,,,,,,,,,,,,,,,,,,,,,,,,,,,,,,,,,,,,,,,,,,,,,,,,,,,,,,,,97.10970680002356,None,97.11013814002509,None,97.10970680002356,None,2,1,1.1623122000019066,99.16057960002217,None,99.16057960002217,None,99.16057960002217,None,99.16057960002217,None,99.16057960002217,None,100.34479020000435,None,,,,,,,,,,,,,,,,,,,,,,,,,001,2021_Feb_14_1757,GuessTheSound,2020.2.10,59.9468631007035,
,,,,,,,,,,,,,,,,,,,,,,,,,,,,,,,,,,,,,,,,,,,,,,,,,,,,,,,,,,,,,,,,,,,,,,,,,,,,,,,,,,,,,,,,,,,,,,,,,,,,101.36242550000316,None,space,6.058216599980369,101.36242550000316,None,,,,,,,,,,,,,,,,,,,001,2021_Feb_14_1757,GuessTheSound,2020.2.10,59.9468631007035,
,2,Initial/Doubled/CarStart_A.wav,New,,,,,,,,,0,0,0,0,,,,,,,,,,,,,,,,,,,,,,,,,,,,,,,,,,,,,,,,,,,,,,,,,,,,,,,,,,,,,,,,,,,,,,,,,,,,,,,,,,,,,,,,,,,101.36242550000316,None,107.50870740000391,None,108.9767118200194,None,108.98892400000477,None,108.98892400000477,None,111.49436320003588,None,2,1,2.1809733000118285,111.49436320003588,None,,001,2021_Feb_14_1757,GuessTheSound,2020.2.10,59.9468631007035,
,2,Initial/Doubled/Clap_A.wav,New,,,,,,,,,0,1,1,1,,,,,,,,,,,,,,,,,,,,,,,,,,,,,,,,,,,,,,,,,,,,,,,,,,,,,,,,,,,,,,,,,,,,,,,,,,,,,,,,,,,,,,,,,,,,,113.69687480002176,None,115.2266280200216,None,115.2349574000109,None,115.2349574000109,None,117.74369440000737,None,2,1,1.244880500016734,117.74369440000737,None,,001,2021_Feb_14_1757,GuessTheSound,2020.2.10,59.9468631007035,
,2,Initial/Doubled/Cuckoo_A.wav,New,,,,,,,,,0,2,2,2,,,,,,,,,,,,,,,,,,,,,,,,,,,,,,,,,,,,,,,,,,,,,,,,,,,,,,,,,,,,,,,,,,,,,,,,,,,,,,,,,,,,,,,,,,,,,119.01116220001131,None,120.5435147200129,None,120.55138950003311,None,120.55138950003311,None,123.04349150002236,None,2,1,0.3363721999921836,123.04349150002236,None,,001,2021_Feb_14_1757,GuessTheSound,2020.2.10,59.9468631007035,
,2,Initial/Doubled/Chomp_A.wav,New,,,,,,,,,0,3,3,3,,,,,,,,,,,,,,,,,,,,,,,,,,,,,,,,,,,,,,,,,,,,,,,,,,,,,,,,,,,,,,,,,,,,,,,,,,,,,,,,,,,,,,,,,,,,,123.40994700003648,None,124.92648992002941,None,124.93205599999055,None,124.93205599999055,None,127.4434740000288,None,2,1,0.6308293999754824,127.4434740000288,None,,001,2021_Feb_14_1757,GuessTheSound,2020.2.10,59.9468631007035,
,2,Initial/NoRepeat/Toilet_B.wav,New,,,,,,,,,0,4,4,4,,,,,,,,,,,,,,,,,,,,,,,,,,,,,,,,,,,,,,,,,,,,,,,,,,,,,,,,,,,,,,,,,,,,,,,,,,,,,,,,,,,,,,,,,,,,,128.09448760002851,None,129.64311458002194,None,129.65367349999724,None,129.65367349999724,None,132.1604111000197,None,2,1,0.8063207000377588,132.1604111000197,None,,001,2021_Feb_14_1757,GuessTheSound,2020.2.10,59.9468631007035,
,2,Initial/Doubled/Piano_A.wav,New,,,,,,,,,0,5,5,5,,,,,,,,,,,,,,,,,,,,,,,,,,,,,,,,,,,,,,,,,,,,,,,,,,,,,,,,,,,,,,,,,,,,,,,,,,,,,,,,,,,,,,,,,,,,,132.9931404000381,None,134.5266919800255,None,134.52333080000244,None,134.52333080000244,None,137.02692319999915,None,2,1,0.5835540000116453,137.02692319999915,None,,001,2021_Feb_14_1757,GuessTheSound,2020.2.10,59.9468631007035,
,2,Initial/Doubled/Cat_A.wav,New,,,,,,,,,0,6,6,6,,,,,,,,,,,,,,,,,,,,,,,,,,,,,,,,,,,,,,,,,,,,,,,,,,,,,,,,,,,,,,,,,,,,,,,,,,,,,,,,,,,,,,,,,,,,,137.62635640002554,None,139.1435355200316,None,139.14767259999644,None,139.14767259999644,None,140.57659519999288,None,2,1,0.43296289996942505,140.57659519999288,None,,001,2021_Feb_14_1757,GuessTheSound,2020.2.10,59.9468631007035,
,1,Initial/Doubled/Clap_A.wav,Old,,,,,,,,,0,7,7,7,,,,,,,,,,,,,,,,,,,,,,,,,,,,,,,,,,,,,,,,,,,,,,,,,,,,,,,,,,,,,,,,,,,,,,,,,,,,,,,,,,,,,,,,,,,,,141.0264107999974,None,142.54327812001577,None,142.5460057000164,None,142.5460057000164,None,145.06151540001156,None,1,1,0.6237571999663487,145.06151540001156,None,,001,2021_Feb_14_1757,GuessTheSound,2020.2.10,59.9468631007035,
,2,Initial/Repeat/Buzz.wav,New,,,,,,,,,0,8,8,8,,,,,,,,,,,,,,,,,,,,,,,,,,,,,,,,,,,,,,,,,,,,,,,,,,,,,,,,,,,,,,,,,,,,,,,,,,,,,,,,,,,,,,,,,,,,,145.7097444999963,None,147.25957624001896,None,147.25957270001527,None,147.25957270001527,None,149.5601292999927,None,2,1,0.8713025000179186,149.5601292999927,None,,001,2021_Feb_14_1757,GuessTheSound,2020.2.10,59.9468631007035,
,2,Initial/NoRepeat/Footsteps_B.wav,New,,,,,,,,,0,9,9,9,,,,,,,,,,,,,,,,,,,,,,,,,,,,,,,,,,,,,,,,,,,,,,,,,,,,,,,,,,,,,,,,,,,,,,,,,,,,,,,,,,,,,,,,,,,,,150.4598682000069,None,151.95900856003283,None,151.96437860000879,None,151.96437860000879,None,154.47645040001953,None,2,1,0.9864922999986447,154.47645040001953,None,,001,2021_Feb_14_1757,GuessTheSound,2020.2.10,59.9468631007035,
,2,CarStart_D.wav,Similar,,,,,,,,,0,10,10,10,,,,,,,,,,,,,,,,,,,,,,,,,,,,,,,,,,,,,,,,,,,,,,,,,,,,,,,,,,,,,,,,,,,,,,,,,,,,,,,,,,,,,,,,,,,,,155.49277650000295,None,157.00972272004003,None,157.01023150002584,None,157.01023150002584,None,159.50960220000707,None,2,1,2.550882300012745,159.50960220000707,None,,001,2021_Feb_14_1757,GuessTheSound,2020.2.10,59.9468631007035,
,2,Initial/Repeat/Whistle_A.wav,New,,,,,,,,,0,11,11,11,,,,,,,,,,,,,,,,,,,,,,,,,,,,,,,,,,,,,,,,,,,,,,,,,,,,,,,,,,,,,,,,,,,,,,,,,,,,,,,,,,,,,,,,,,,,,162.08023369999137,None,163.62637958000997,None,163.6314665999962,None,163.6314665999962,None,165.12658750003902,None,2,1,0.7804936000029556,165.12658750003902,None,,001,2021_Feb_14_1757,GuessTheSound,2020.2.10,59.9468631007035,
,1,Initial/Doubled/Cuckoo_A.wav,Old,,,,,,,,,0,12,12,12,,,,,,,,,,,,,,,,,,,,,,,,,,,,,,,,,,,,,,,,,,,,,,,,,,,,,,,,,,,,,,,,,,,,,,,,,,,,,,,,,,,,,,,,,,,,,165.92609470000025,None,167.44319631999826,None,167.4376518999925,None,167.4376518999925,None,169.92625210003462,None,1,1,0.5817197000142187,169.92625210003462,None,,001,2021_Feb_14_1757,GuessTheSound,2020.2.10,59.9468631007035,
,2,Chomp_B.wav,Similar,,,,,,,,,0,13,13,13,,,,,,,,,,,,,,,,,,,,,,,,,,,,,,,,,,,,,,,,,,,,,,,,,,,,,,,,,,,,,,,,,,,,,,,,,,,,,,,,,,,,,,,,,,,,,170.52597030001925,None,172.04320272002371,None,172.0439170000027,None,172.0439170000027,None,174.5431633000262,None,2,1,0.7403855999582447,174.5431633000262,None,,001,2021_Feb_14_1757,GuessTheSound,2020.2.10,59.9468631007035,
,2,Piano_B.wav,Similar,,,,,,,,,0,14,14,14,,,,,,,,,,,,,,,,,,,,,,,,,,,,,,,,,,,,,,,,,,,,,,,,,,,,,,,,,,,,,,,,,,,,,,,,,,,,,,,,,,,,,,,,,,,,,175.3095125000109,None,176.84280208004057,None,176.83969709998928,None,176.83969709998928,None,179.3429120000219,None,2,1,1.6415651999996044,179.3429120000219,None,,001,2021_Feb_14_1757,GuessTheSound,2020.2.10,59.9468631007035,
,1,Initial/Repeat/Buzz.wav,Old,,,,,,,,,0,15,15,15,,,,,,,,,,,,,,,,,,,,,,,,,,,,,,,,,,,,,,,,,,,,,,,,,,,,,,,,,,,,,,,,,,,,,,,,,,,,,,,,,,,,,,,,,,,,,181.00966360000893,None,182.50924326000387,None,182.51731210004073,None,182.51731210004073,None,184.82645480002975,None,1,1,0.6065881000249647,184.82645480002975,None,,001,2021_Feb_14_1757,GuessTheSound,2020.2.10,59.9468631007035,
,1,Initial/NoRepeat/Toilet_B.wav,Old,,,,,,,,,0,16,16,16,,,,,,,,,,,,,,,,,,,,,,,,,,,,,,,,,,,,,,,,,,,,,,,,,,,,,,,,,,,,,,,,,,,,,,,,,,,,,,,,,,,,,,,,,,,,,185.4605823000311,None,186.97623536000611,None,186.98731659998884,None,186.98731659998884,None,189.49294460000237,None,1,1,0.3824316000100225,189.49294460000237,None,,001,2021_Feb_14_1757,GuessTheSound,2020.2.10,59.9468631007035,
,2,Whistle_B.wav,Similar,,,,,,,,,0,17,17,17,,,,,,,,,,,,,,,,,,,,,,,,,,,,,,,,,,,,,,,,,,,,,,,,,,,,,,,,,,,,,,,,,,,,,,,,,,,,,,,,,,,,,,,,,,,,,189.89390810002806,None,191.4593307400239,None,191.4581016000011,None,191.4581016000011,None,193.95931150001707,None,2,1,0.6365426999982446,193.95931150001707,None,,001,2021_Feb_14_1757,GuessTheSound,2020.2.10,59.9468631007035,
,1,Initial/Doubled/Cat_A.wav,Old,,,,,,,,,0,18,18,18,,,,,,,,,,,,,,,,,,,,,,,,,,,,,,,,,,,,,,,,,,,,,,,,,,,,,,,,,,,,,,,,,,,,,,,,,,,,,,,,,,,,,,,,,,,,,194.62610250001308,None,196.12610166000087,None,196.13694580004085,None,196.13694580004085,None,197.55969680001726,None,1,1,0.6530455999891274,197.55969680001726,None,,001,2021_Feb_14_1757,GuessTheSound,2020.2.10,59.9468631007035,
,1,Initial/NoRepeat/Footsteps_B.wav,Old,,,,,,,,,0,19,19,19,,,,,,,,,,,,,,,,,,,,,,,,,,,,,,,,,,,,,,,,,,,,,,,,,,,,,,,,,,,,,,,,,,,,,,,,,,,,,,,,,,,,,,,,,,,,,198.24246370000765,None,199.75939132001952,None,199.75381590001052,None,199.75381590001052,None,202.25918490003096,None,1,1,0.6764854000066407,202.25918490003096,None,,001,2021_Feb_14_1757,GuessTheSound,2020.2.10,59.9468631007035,
,2,CarStart_B.wav,Similar,,,,,,,,,0,20,20,20,,,,,,,,,,,,,,,,,,,,,,,,,,,,,,,,,,,,,,,,,,,,,,,,,,,,,,,,,,,,,,,,,,,,,,,,,,,,,,,,,,,,,,,,,,,,,202.95921530004125,None,204.4924484799907,None,204.49421030003577,None,204.49421030003577,None,206.99264200002654,None,1,0,0.5488148999866098,206.99264200002654,None,,001,2021_Feb_14_1757,GuessTheSound,2020.2.10,59.9468631007035,
,1,Initial/Doubled/Cuckoo_A.wav,Old,,,,,,,,,0,21,21,21,,,,,,,,,,,,,,,,,,,,,,,,,,,,,,,,,,,,,,,,,,,,,,,,,,,,,,,,,,,,,,,,,,,,,,,,,,,,,,,,,,,,,,,,,,,,,207.55912640003953,None,209.07580191999443,None,209.07417290000012,None,209.07417290000012,None,211.5592755000107,None,1,1,0.35379160003503785,211.5592755000107,None,,001,2021_Feb_14_1757,GuessTheSound,2020.2.10,59.9468631007035,
,1,Initial/Doubled/Clap_A.wav,Old,,,,,,,,,0,22,22,22,,,,,,,,,,,,,,,,,,,,,,,,,,,,,,,,,,,,,,,,,,,,,,,,,,,,,,,,,,,,,,,,,,,,,,,,,,,,,,,,,,,,,,,,,,,,,211.94228960003238,None,213.45896521998804,None,213.45623660000274,None,213.45623660000274,None,215.95953819999704,None,1,1,1.116794999979902,215.95953819999704,None,,001,2021_Feb_14_1757,GuessTheSound,2020.2.10,59.9468631007035,
,2,Chomp_C.wav,Similar,,,,,,,,,0,23,23,23,,,,,,,,,,,,,,,,,,,,,,,,,,,,,,,,,,,,,,,,,,,,,,,,,,,,,,,,,,,,,,,,,,,,,,,,,,,,,,,,,,,,,,,,,,,,,217.09232090000296,None,218.60919442001034,None,218.61580890003825,None,218.61580890003825,None,221.12580350000644,None,2,1,1.4702281999634579,221.12580350000644,None,,001,2021_Feb_14_1757,GuessTheSound,2020.2.10,59.9468631007035,
,1,Initial/NoRepeat/Toilet_B.wav,Old,,,,,,,,,0,24,24,24,,,,,,,,,,,,,,,,,,,,,,,,,,,,,,,,,,,,,,,,,,,,,,,,,,,,,,,,,,,,,,,,,,,,,,,,,,,,,,,,,,,,,,,,,,,,,222.62567820004188,None,224.1425399200176,None,224.13751470000716,None,224.13751470000716,None,226.6424446000019,None,1,1,0.4246792999911122,226.6424446000019,None,,001,2021_Feb_14_1757,GuessTheSound,2020.2.10,59.9468631007035,
,2,Piano_C.wav,Similar,,,,,,,,,0,25,25,25,,,,,,,,,,,,,,,,,,,,,,,,,,,,,,,,,,,,,,,,,,,,,,,,,,,,,,,,,,,,,,,,,,,,,,,,,,,,,,,,,,,,,,,,,,,,,227.09371660003671,None,228.62541972004112,None,228.62948900001356,None,228.62948900001356,None,231.14239280001493,None,2,1,1.5026753999991342,231.14239280001493,None,,001,2021_Feb_14_1757,GuessTheSound,2020.2.10,59.9468631007035,
,1,Initial/Repeat/Buzz.wav,Old,,,,,,,,,0,26,26,26,,,,,,,,,,,,,,,,,,,,,,,,,,,,,,,,,,,,,,,,,,,,,,,,,,,,,,,,,,,,,,,,,,,,,,,,,,,,,,,,,,,,,,,,,,,,,232.6754665999906,None,234.1925626200042,None,234.18807660002494,None,234.18807660002494,None,236.49230230000103,None,1,1,0.4080459999968298,236.49230230000103,None,,001,2021_Feb_14_1757,GuessTheSound,2020.2.10,59.9468631007035,
,2,Initial/NoRepeat/Snore_B.wav,New,,,,,,,,,0,27,27,27,,,,,,,,,,,,,,,,,,,,,,,,,,,,,,,,,,,,,,,,,,,,,,,,,,,,,,,,,,,,,,,,,,,,,,,,,,,,,,,,,,,,,,,,,,,,,236.92541520000668,None,238.47592834003737,None,238.47657150001032,None,238.47657150001032,None,240.89228490000824,None,2,1,1.7595240999944508,240.89228490000824,None,,001,2021_Feb_14_1757,GuessTheSound,2020.2.10,59.9468631007035,
,1,Initial/Doubled/Cat_A.wav,Old,,,,,,,,,0,28,28,28,,,,,,,,,,,,,,,,,,,,,,,,,,,,,,,,,,,,,,,,,,,,,,,,,,,,,,,,,,,,,,,,,,,,,,,,,,,,,,,,,,,,,,,,,,,,,242.67524549999507,None,244.1757814599958,None,244.1871550999931,None,244.1871550999931,None,245.6089071999886,None,1,1,0.5418482000241056,245.6089071999886,None,,001,2021_Feb_14_1757,GuessTheSound,2020.2.10,59.9468631007035,
,2,Initial/Doubled/Laugh_A.wav,New,,,,,,,,,0,29,29,29,,,,,,,,,,,,,,,,,,,,,,,,,,,,,,,,,,,,,,,,,,,,,,,,,,,,,,,,,,,,,,,,,,,,,,,,,,,,,,,,,,,,,,,,,,,,,246.17572310002288,None,247.69192552004245,None,247.70067079999717,None,247.70067079999717,None,250.20887950004544,None,2,1,2.2110849000164308,250.20887950004544,None,,001,2021_Feb_14_1757,GuessTheSound,2020.2.10,59.9468631007035,
,1,Initial/NoRepeat/Footsteps_B.wav,Old,,,,,,,,,0,30,30,30,,,,,,,,,,,,,,,,,,,,,,,,,,,,,,,,,,,,,,,,,,,,,,,,,,,,,,,,,,,,,,,,,,,,,,,,,,,,,,,,,,,,,,,,,,,,,252.44189250003546,None,253.95879021999428,None,253.95547720004106,None,253.95547720004106,None,256.4587118999916,None,1,1,0.9988591999863274,256.4587118999916,None,,001,2021_Feb_14_1757,GuessTheSound,2020.2.10,59.9468631007035,
,2,Whistle_C.wav,Similar,,,,,,,,,0,31,31,31,,,,,,,,,,,,,,,,,,,,,,,,,,,,,,,,,,,,,,,,,,,,,,,,,,,,,,,,,,,,,,,,,,,,,,,,,,,,,,,,,,,,,,,,,,,,,257.47570940002333,None,259.00858838001153,None,259.00365750002675,None,259.00365750002675,None,261.5072364000371,None,2,1,1.399154799990356,261.5072364000371,None,,001,2021_Feb_14_1757,GuessTheSound,2020.2.10,59.9468631007035,
,2,Initial/NoRepeat/Helicopter_A.wav,New,,,,,,,,,0,32,32,32,,,,,,,,,,,,,,,,,,,,,,,,,,,,,,,,,,,,,,,,,,,,,,,,,,,,,,,,,,,,,,,,,,,,,,,,,,,,,,,,,,,,,,,,,,,,,262.923818500014,None,264.4573319800024,None,264.4625144000165,None,264.4625144000165,None,266.9249694000464,None,1,0,0.37508269998943433,266.9249694000464,None,,001,2021_Feb_14_1757,GuessTheSound,2020.2.10,59.9468631007035,
,2,Initial/Repeat/Sneeze_B.wav,New,,,,,,,,,0,33,33,33,,,,,,,,,,,,,,,,,,,,,,,,,,,,,,,,,,,,,,,,,,,,,,,,,,,,,,,,,,,,,,,,,,,,,,,,,,,,,,,,,,,,,,,,,,,,,267.32500519999303,None,268.85847998003595,None,268.8649581000209,None,268.8649581000209,None,270.09180970001034,None,2,1,2.4091151999891736,270.09180970001034,None,,001,2021_Feb_14_1757,GuessTheSound,2020.2.10,59.9468631007035,
,2,Initial/Repeat/Pour.wav,New,,,,,,,,,0,34,34,34,,,,,,,,,,,,,,,,,,,,,,,,,,,,,,,,,,,,,,,,,,,,,,,,,,,,,,,,,,,,,,,,,,,,,,,,,,,,,,,,,,,,,,,,,,,,,272.5262859000359,None,274.0751729800308,None,274.08333980001044,None,274.08333980001044,None,276.5919408000191,None,2,1,0.4304675000021234,276.5919408000191,None,,001,2021_Feb_14_1757,GuessTheSound,2020.2.10,59.9468631007035,
,2,Initial/NoRepeat/Thunder_A.wav,New,,,,,,,,,0,35,35,35,,,,,,,,,,,,,,,,,,,,,,,,,,,,,,,,,,,,,,,,,,,,,,,,,,,,,,,,,,,,,,,,,,,,,,,,,,,,,,,,,,,,,,,,,,,,,277.0430415000301,None,278.5915961799969,None,278.5934915000107,None,278.5934915000107,None,281.10881500004325,None,2,1,0.5080238999798894,281.10881500004325,None,,001,2021_Feb_14_1757,GuessTheSound,2020.2.10,59.9468631007035,
,2,Test/Foils/Camera.wav,New,,,,,,,,,0,36,36,36,,,,,,,,,,,,,,,,,,,,,,,,,,,,,,,,,,,,,,,,,,,,,,,,,,,,,,,,,,,,,,,,,,,,,,,,,,,,,,,,,,,,,,,,,,,,,281.64199690002715,None,283.19179534002905,None,283.1880345999962,None,283.1880345999962,None,284.15866720001213,None,2,1,1.227906999993138,284.15866720001213,None,,001,2021_Feb_14_1757,GuessTheSound,2020.2.10,59.9468631007035,
,1,Initial/NoRepeat/Snore_B.wav,Old,,,,,,,,,0,37,37,37,,,,,,,,,,,,,,,,,,,,,,,,,,,,,,,,,,,,,,,,,,,,,,,,,,,,,,,,,,,,,,,,,,,,,,,,,,,,,,,,,,,,,,,,,,,,,285.40927960001864,None,286.9249394200393,None,286.92134940001415,None,286.92134940001415,None,289.34184200002346,None,1,1,0.5803471999824978,289.34184200002346,None,,001,2021_Feb_14_1757,GuessTheSound,2020.2.10,59.9468631007035,
,2,Initial/Repeat/ManWhistle.wav,New,,,,,,,,,0,38,38,38,,,,,,,,,,,,,,,,,,,,,,,,,,,,,,,,,,,,,,,,,,,,,,,,,,,,,,,,,,,,,,,,,,,,,,,,,,,,,,,,,,,,,,,,,,,,,289.9426367999986,None,291.47497668001455,None,291.4790931000025,None,291.4790931000025,None,293.6917594000115,None,2,1,0.6010074999649078,293.6917594000115,None,,001,2021_Feb_14_1757,GuessTheSound,2020.2.10,59.9468631007035,
,2,Laugh_C.wav,Similar,,,,,,,,,0,39,39,39,,,,,,,,,,,,,,,,,,,,,,,,,,,,,,,,,,,,,,,,,,,,,,,,,,,,,,,,,,,,,,,,,,,,,,,,,,,,,,,,,,,,,,,,,,,,,294.30868499999633,None,295.82484511998484,None,295.8340294000227,None,295.8340294000227,None,298.3416680000373,None,2,1,1.0076385999564081,298.3416680000373,None,,001,2021_Feb_14_1757,GuessTheSound,2020.2.10,59.9468631007035,
,1,Initial/Repeat/Sneeze_B.wav,Old,,,,,,,,,0,40,40,40,,,,,,,,,,,,,,,,,,,,,,,,,,,,,,,,,,,,,,,,,,,,,,,,,,,,,,,,,,,,,,,,,,,,,,,,,,,,,,,,,,,,,,,,,,,,,299.3747884000186,None,300.8749499600206,None,300.88503970002057,None,300.88503970002057,None,302.10859610000625,None,1,1,1.0770718000130728,302.10859610000625,None,,001,2021_Feb_14_1757,GuessTheSound,2020.2.10,59.9468631007035,
,2,Pour_D.wav,Similar,,,,,,,,,0,41,41,41,,,,,,,,,,,,,,,,,,,,,,,,,,,,,,,,,,,,,,,,,,,,,,,,,,,,,,,,,,,,,,,,,,,,,,,,,,,,,,,,,,,,,,,,,,,,,303.2090853000409,None,304.7746479399968,None,304.77693560003536,None,304.77693560003536,None,307.2915300000459,None,2,1,1.2386599000310525,307.2915300000459,None,,001,2021_Feb_14_1757,GuessTheSound,2020.2.10,59.9468631007035,
,1,Initial/NoRepeat/Helicopter_A.wav,Old,,,,,,,,,0,42,42,42,,,,,,,,,,,,,,,,,,,,,,,,,,,,,,,,,,,,,,,,,,,,,,,,,,,,,,,,,,,,,,,,,,,,,,,,,,,,,,,,,,,,,,,,,,,,,308.5594398000394,None,310.0751239600184,None,310.08533740002895,None,310.08533740002895,None,312.5415499000228,None,1,1,0.5468145000049844,312.5415499000228,None,,001,2021_Feb_14_1757,GuessTheSound,2020.2.10,59.9468631007035,
,2,Initial/Repeat/Howl.wav,New,,,,,,,,,0,43,43,43,,,,,,,,,,,,,,,,,,,,,,,,,,,,,,,,,,,,,,,,,,,,,,,,,,,,,,,,,,,,,,,,,,,,,,,,,,,,,,,,,,,,,,,,,,,,,313.10841450002044,None,314.6578929400304,None,314.66564270004164,None,314.66564270004164,None,317.17501890001586,None,2,1,0.5344934999593534,317.17501890001586,None,,001,2021_Feb_14_1757,GuessTheSound,2020.2.10,59.9468631007035,
,2,Initial/Repeat/PaperRip.wav,New,,,,,,,,,0,44,44,44,,,,,,,,,,,,,,,,,,,,,,,,,,,,,,,,,,,,,,,,,,,,,,,,,,,,,,,,,,,,,,,,,,,,,,,,,,,,,,,,,,,,,,,,,,,,,317.7254678000463,None,319.2583944799903,None,319.2607767000445,None,319.2607767000445,None,320.85832759999903,None,2,1,0.5620606999727897,320.85832759999903,None,,001,2021_Feb_14_1757,GuessTheSound,2020.2.10,59.9468631007035,
,1,Initial/NoRepeat/Thunder_A.wav,Old,,,,,,,,,0,45,45,45,,,,,,,,,,,,,,,,,,,,,,,,,,,,,,,,,,,,,,,,,,,,,,,,,,,,,,,,,,,,,,,,,,,,,,,,,,,,,,,,,,,,,,,,,,,,,321.44251319998875,None,322.9579390600382,None,322.96644129999913,None,322.96644129999913,None,325.4748373000184,None,1,1,1.2519844999769703,325.4748373000184,None,,001,2021_Feb_14_1757,GuessTheSound,2020.2.10,59.9468631007035,
,2,Laugh_D.wav,Similar,,,,,,,,,0,46,46,46,,,,,,,,,,,,,,,,,,,,,,,,,,,,,,,,,,,,,,,,,,,,,,,,,,,,,,,,,,,,,,,,,,,,,,,,,,,,,,,,,,,,,,,,,,,,,326.7433204000117,None,328.27452622001294,None,328.28166999999667,None,328.28166999999667,None,330.7914010999957,None,2,1,1.350925799983088,330.7914010999957,None,,001,2021_Feb_14_1757,GuessTheSound,2020.2.10,59.9468631007035,
,1,Test/Foils/Camera.wav,Old,,,,,,,,,0,47,47,47,,,,,,,,,,,,,,,,,,,,,,,,,,,,,,,,,,,,,,,,,,,,,,,,,,,,,,,,,,,,,,,,,,,,,,,,,,,,,,,,,,,,,,,,,,,,,332.1584469000227,None,333.65772846001784,None,333.66761699999915,None,333.66761699999915,None,334.641508300032,None,1,1,0.7316863999585621,334.641508300032,None,,001,2021_Feb_14_1757,GuessTheSound,2020.2.10,59.9468631007035,
,1,Initial/NoRepeat/Snore_B.wav,Old,,,,,,,,,0,48,48,48,,,,,,,,,,,,,,,,,,,,,,,,,,,,,,,,,,,,,,,,,,,,,,,,,,,,,,,,,,,,,,,,,,,,,,,,,,,,,,,,,,,,,,,,,,,,,335.3912602000055,None,336.9078508200124,None,336.90498240001034,None,336.90498240001034,None,339.32458810001845,None,1,1,1.0507187000475824,339.32458810001845,None,,001,2021_Feb_14_1757,GuessTheSound,2020.2.10,59.9468631007035,
,2,ManWhistle_C.wav,Similar,,,,,,,,,0,49,49,49,,,,,,,,,,,,,,,,,,,,,,,,,,,,,,,,,,,,,,,,,,,,,,,,,,,,,,,,,,,,,,,,,,,,,,,,,,,,,,,,,,,,,,,,,,,,,340.3913137000054,None,341.90770072003363,None,341.9090634000022,None,341.9090634000022,None,343.4081211000448,None,2,1,1.3329205999616534,343.4081211000448,None,,001,2021_Feb_14_1757,GuessTheSound,2020.2.10,59.9468631007035,
,1,Initial/Repeat/Howl.wav,Old,,,,,,,,,0,50,50,50,,,,,,,,,,,,,,,,,,,,,,,,,,,,,,,,,,,,,,,,,,,,,,,,,,,,,,,,,,,,,,,,,,,,,,,,,,,,,,,,,,,,,,,,,,,,,344.76082210004097,None,346.2746052600385,None,346.2869057999924,None,346.2869057999924,None,348.7913041000138,None,1,1,1.268227000022307,348.7913041000138,None,,001,2021_Feb_14_1757,GuessTheSound,2020.2.10,59.9468631007035,
,1,Initial/NoRepeat/Helicopter_A.wav,Old,,,,,,,,,0,51,51,51,,,,,,,,,,,,,,,,,,,,,,,,,,,,,,,,,,,,,,,,,,,,,,,,,,,,,,,,,,,,,,,,,,,,,,,,,,,,,,,,,,,,,,,,,,,,,350.07506570004625,None,351.59124962004137,None,351.5888657000032,None,351.5888657000032,None,354.04115130001446,None,1,1,2.2983341999934055,354.04115130001446,None,,001,2021_Feb_14_1757,GuessTheSound,2020.2.10,59.9468631007035,
,1,Initial/Repeat/Sneeze_B.wav,Old,,,,,,,,,0,52,52,52,,,,,,,,,,,,,,,,,,,,,,,,,,,,,,,,,,,,,,,,,,,,,,,,,,,,,,,,,,,,,,,,,,,,,,,,,,,,,,,,,,,,,,,,,,,,,356.358831199992,None,357.87446916002665,None,357.88243100000545,None,357.88243100000545,None,359.1078710000147,None,1,1,0.8027004000032321,359.1078710000147,None,,001,2021_Feb_14_1757,GuessTheSound,2020.2.10,59.9468631007035,
,1,Initial/NoRepeat/Thunder_A.wav,Old,,,,,,,,,0,53,53,53,,,,,,,,,,,,,,,,,,,,,,,,,,,,,,,,,,,,,,,,,,,,,,,,,,,,,,,,,,,,,,,,,,,,,,,,,,,,,,,,,,,,,,,,,,,,,359.9409801000147,None,361.45749692004176,None,361.4540753000183,None,361.4540753000183,None,363.95792120002443,None,1,1,1.2341282000415958,363.95792120002443,None,,001,2021_Feb_14_1757,GuessTheSound,2020.2.10,59.9468631007035,
,2,Pour_C.wav,Similar,,,,,,,,,0,54,54,54,,,,,,,,,,,,,,,,,,,,,,,,,,,,,,,,,,,,,,,,,,,,,,,,,,,,,,,,,,,,,,,,,,,,,,,,,,,,,,,,,,,,,,,,,,,,,365.2084204000421,None,366.7241223200341,None,366.73401110002305,None,366.73401110002305,None,369.2411611000425,None,1,0,0.3783725000103004,369.2411611000425,None,,001,2021_Feb_14_1757,GuessTheSound,2020.2.10,59.9468631007035,
,2,Initial/Repeat/Airplane_B.wav,New,,,,,,,,,0,55,55,55,,,,,,,,,,,,,,,,,,,,,,,,,,,,,,,,,,,,,,,,,,,,,,,,,,,,,,,,,,,,,,,,,,,,,,,,,,,,,,,,,,,,,,,,,,,,,369.64079870004207,None,371.1908019400318,None,371.193769400008,None,371.193769400008,None,373.707805300015,None,2,1,1.1346189999603666,373.707805300015,None,,001,2021_Feb_14_1757,GuessTheSound,2020.2.10,59.9468631007035,
,1,Initial/Repeat/PaperRip.wav,Old,,,,,,,,,0,56,56,56,,,,,,,,,,,,,,,,,,,,,,,,,,,,,,,,,,,,,,,,,,,,,,,,,,,,,,,,,,,,,,,,,,,,,,,,,,,,,,,,,,,,,,,,,,,,,374.85849390004296,None,376.37418556002086,None,376.3840169000323,None,376.3840169000323,None,377.9743946000235,None,1,1,0.46777629997814074,377.9743946000235,None,,001,2021_Feb_14_1757,GuessTheSound,2020.2.10,59.9468631007035,
,2,Test/Foils/Bird.wav,New,,,,,,,,,0,57,57,57,,,,,,,,,,,,,,,,,,,,,,,,,,,,,,,,,,,,,,,,,,,,,,,,,,,,,,,,,,,,,,,,,,,,,,,,,,,,,,,,,,,,,,,,,,,,,378.45719230000395,None,380.00722824000985,None,380.0073466000031,None,380.0073466000031,None,382.5077198999934,None,2,1,1.1615598000353202,382.5077198999934,None,,001,2021_Feb_14_1757,GuessTheSound,2020.2.10,59.9468631007035,
,2,Initial/Doubled/Writing_A.wav,New,,,,,,,,,0,58,58,58,,,,,,,,,,,,,,,,,,,,,,,,,,,,,,,,,,,,,,,,,,,,,,,,,,,,,,,,,,,,,,,,,,,,,,,,,,,,,,,,,,,,,,,,,,,,,383.69049180002185,None,385.2573496999976,None,385.25259460002417,None,385.25259460002417,None,387.75755810004193,None,2,1,0.5245010000071488,387.75755810004193,None,,001,2021_Feb_14_1757,GuessTheSound,2020.2.10,59.9468631007035,
,1,Test/Foils/Camera.wav,Old,,,,,,,,,0,59,59,59,,,,,,,,,,,,,,,,,,,,,,,,,,,,,,,,,,,,,,,,,,,,,,,,,,,,,,,,,,,,,,,,,,,,,,,,,,,,,,,,,,,,,,,,,,,,,388.30858950002585,None,389.8241027600423,None,389.8305449000327,None,389.8305449000327,None,390.7907403000281,None,1,1,0.548861899995245,390.7907403000281,None,,001,2021_Feb_14_1757,GuessTheSound,2020.2.10,59.9468631007035,
,2,ManWhistle_D.wav,Similar,,,,,,,,,0,60,60,60,,,,,,,,,,,,,,,,,,,,,,,,,,,,,,,,,,,,,,,,,,,,,,,,,,,,,,,,,,,,,,,,,,,,,,,,,,,,,,,,,,,,,,,,,,,,,391.35917900002096,None,392.89075662000107,None,392.889556500013,None,392.889556500013,None,394.50762009999016,None,2,1,0.8790182999800891,394.50762009999016,None,,001,2021_Feb_14_1757,GuessTheSound,2020.2.10,59.9468631007035,
,1,Initial/Repeat/Howl.wav,Old,,,,,,,,,0,61,61,61,,,,,,,,,,,,,,,,,,,,,,,,,,,,,,,,,,,,,,,,,,,,,,,,,,,,,,,,,,,,,,,,,,,,,,,,,,,,,,,,,,,,,,,,,,,,,395.4077773000463,None,396.9237183199963,None,396.91910310002277,None,396.91910310002277,None,399.42413739999756,None,1,1,0.40751289995387197,399.42413739999756,None,,001,2021_Feb_14_1757,GuessTheSound,2020.2.10,59.9468631007035,
,2,Initial/Doubled/Dog_A.wav,New,,,,,,,,,0,62,62,62,,,,,,,,,,,,,,,,,,,,,,,,,,,,,,,,,,,,,,,,,,,,,,,,,,,,,,,,,,,,,,,,,,,,,,,,,,,,,,,,,,,,,,,,,,,,,399.85695480002323,None,401.40712654001544,None,401.4106284000445,None,401.4106284000445,None,403.9238752000383,None,2,1,0.9072006000205874,403.9238752000383,None,,001,2021_Feb_14_1757,GuessTheSound,2020.2.10,59.9468631007035,
,2,Test/Foils/Bullfrog.wav,New,,,,,,,,,0,63,63,63,,,,,,,,,,,,,,,,,,,,,,,,,,,,,,,,,,,,,,,,,,,,,,,,,,,,,,,,,,,,,,,,,,,,,,,,,,,,,,,,,,,,,,,,,,,,,404.85704070003703,None,406.3902813799854,None,406.39342450001277,None,406.39342450001277,None,408.907320600003,None,2,1,1.1132862999802455,408.907320600003,None,,001,2021_Feb_14_1757,GuessTheSound,2020.2.10,59.9468631007035,
,1,Initial/Repeat/PaperRip.wav,Old,,,,,,,,,0,64,64,64,,,,,,,,,,,,,,,,,,,,,,,,,,,,,,,,,,,,,,,,,,,,,,,,,,,,,,,,,,,,,,,,,,,,,,,,,,,,,,,,,,,,,,,,,,,,,410.04100409999955,None,411.5403599600366,None,411.55023930000607,None,411.55023930000607,None,413.140320800012,None,1,1,0.6704428999801166,413.140320800012,None,,001,2021_Feb_14_1757,GuessTheSound,2020.2.10,59.9468631007035,
,1,Initial/Repeat/Airplane_B.wav,Old,,,,,,,,,0,65,65,65,,,,,,,,,,,,,,,,,,,,,,,,,,,,,,,,,,,,,,,,,,,,,,,,,,,,,,,,,,,,,,,,,,,,,,,,,,,,,,,,,,,,,,,,,,,,,413.84029379999265,None,415.35712302001195,None,415.3534386000247,None,415.3534386000247,None,417.8573983000242,None,1,1,0.6341719000483863,417.8573983000242,None,,001,2021_Feb_14_1757,GuessTheSound,2020.2.10,59.9468631007035,
,2,Initial/NoRepeat/Droplet_B.wav,New,,,,,,,,,0,66,66,66,,,,,,,,,,,,,,,,,,,,,,,,,,,,,,,,,,,,,,,,,,,,,,,,,,,,,,,,,,,,,,,,,,,,,,,,,,,,,,,,,,,,,,,,,,,,,418.50688170001376,None,420.0401256799873,None,420.04816950001987,None,420.04816950001987,None,422.20707170001697,None,2,1,0.908901099988725,422.20707170001697,None,,001,2021_Feb_14_1757,GuessTheSound,2020.2.10,59.9468631007035,
,2,Bird_C.wav,Similar,,,,,,,,,0,67,67,67,,,,,,,,,,,,,,,,,,,,,,,,,,,,,,,,,,,,,,,,,,,,,,,,,,,,,,,,,,,,,,,,,,,,,,,,,,,,,,,,,,,,,,,,,,,,,423.1401678000111,None,424.65699121998625,None,424.65287530003116,None,424.65287530003116,None,426.39034810004523,None,2,1,0.9693798000225797,426.39034810004523,None,,001,2021_Feb_14_1757,GuessTheSound,2020.2.10,59.9468631007035,
,1,Initial/Doubled/Writing_A.wav,Old,,,,,,,,,0,68,68,68,,,,,,,,,,,,,,,,,,,,,,,,,,,,,,,,,,,,,,,,,,,,,,,,,,,,,,,,,,,,,,,,,,,,,,,,,,,,,,,,,,,,,,,,,,,,,427.3900846000179,None,428.9067991200369,None,428.9032232000027,None,428.9032232000027,None,431.4067186000175,None,1,1,0.6609535000170581,431.4067186000175,None,,001,2021_Feb_14_1757,GuessTheSound,2020.2.10,59.9468631007035,
,2,Initial/Repeat/Bagpipe.wav,New,,,,,,,,,0,69,69,69,,,,,,,,,,,,,,,,,,,,,,,,,,,,,,,,,,,,,,,,,,,,,,,,,,,,,,,,,,,,,,,,,,,,,,,,,,,,,,,,,,,,,,,,,,,,,432.0899894000031,None,433.6733964600251,None,433.6698052000138,None,433.6698052000138,None,436.04033170000184,None,2,1,0.6295005999854766,436.04033170000184,None,,001,2021_Feb_14_1757,GuessTheSound,2020.2.10,59.9468631007035,
,2,Initial/Doubled/Growl_A.wav,New,,,,,,,,,0,70,70,70,,,,,,,,,,,,,,,,,,,,,,,,,,,,,,,,,,,,,,,,,,,,,,,,,,,,,,,,,,,,,,,,,,,,,,,,,,,,,,,,,,,,,,,,,,,,,436.6898744000355,None,438.22324808000707,None,438.22050480003236,None,438.22050480003236,None,440.72357460000785,None,2,1,0.7594452999765053,440.72357460000785,None,,001,2021_Feb_14_1757,GuessTheSound,2020.2.10,59.9468631007035,
,2,Initial/NoRepeat/Faucet_A.wav,New,,,,,,,,,0,71,71,71,,,,,,,,,,,,,,,,,,,,,,,,,,,,,,,,,,,,,,,,,,,,,,,,,,,,,,,,,,,,,,,,,,,,,,,,,,,,,,,,,,,,,,,,,,,,,441.50658450002084,None,443.0733574999904,None,443.06880350003485,None,443.06880350003485,None,445.5570466000354,None,2,1,0.4972618999890983,445.5570466000354,None,,001,2021_Feb_14_1757,GuessTheSound,2020.2.10,59.9468631007035,
,2,Dog_D.wav,Similar,,,,,,,,,0,72,72,72,,,,,,,,,,,,,,,,,,,,,,,,,,,,,,,,,,,,,,,,,,,,,,,,,,,,,,,,,,,,,,,,,,,,,,,,,,,,,,,,,,,,,,,,,,,,,446.07404239999596,None,447.5901879199897,None,447.594210500014,None,447.594210500014,None,449.6069239000208,None,2,1,0.6314584000501782,449.6069239000208,None,,001,2021_Feb_14_1757,GuessTheSound,2020.2.10,59.9468631007035,
,1,Initial/NoRepeat/Droplet_B.wav,Old,,,,,,,,,0,73,73,73,,,,,,,,,,,,,,,,,,,,,,,,,,,,,,,,,,,,,,,,,,,,,,,,,,,,,,,,,,,,,,,,,,,,,,,,,,,,,,,,,,,,,,,,,,,,,450.2567410999909,None,451.7733506200253,None,451.76872860000003,None,451.76872860000003,None,453.9235282000154,None,1,1,1.5127299000159837,453.9235282000154,None,,001,2021_Feb_14_1757,GuessTheSound,2020.2.10,59.9468631007035,
,2,Bird_D.wav,Similar,,,,,,,,,0,74,74,74,,,,,,,,,,,,,,,,,,,,,,,,,,,,,,,,,,,,,,,,,,,,,,,,,,,,,,,,,,,,,,,,,,,,,,,,,,,,,,,,,,,,,,,,,,,,,455.4568946000072,None,456.9733479200164,None,456.9700199000072,None,456.9700199000072,None,458.3066487000324,None,2,1,0.6976053999969736,458.3066487000324,None,,001,2021_Feb_14_1757,GuessTheSound,2020.2.10,59.9468631007035,
,1,Test/Foils/Bullfrog.wav,Old,,,,,,,,,0,75,75,75,,,,,,,,,,,,,,,,,,,,,,,,,,,,,,,,,,,,,,,,,,,,,,,,,,,,,,,,,,,,,,,,,,,,,,,,,,,,,,,,,,,,,,,,,,,,,459.0244299999904,None,460.53969206001494,None,460.5486613000394,None,460.5486613000394,None,463.05687590001617,None,1,1,1.3484986000112258,463.05687590001617,None,,001,2021_Feb_14_1757,GuessTheSound,2020.2.10,59.9468631007035,
,1,Initial/Repeat/Airplane_B.wav,Old,,,,,,,,,0,76,76,76,,,,,,,,,,,,,,,,,,,,,,,,,,,,,,,,,,,,,,,,,,,,,,,,,,,,,,,,,,,,,,,,,,,,,,,,,,,,,,,,,,,,,,,,,,,,,464.42493610002566,None,465.93967436001986,None,465.94961470004637,None,465.94961470004637,None,468.4568962000194,None,1,1,0.4631089000031352,468.4568962000194,None,,001,2021_Feb_14_1757,GuessTheSound,2020.2.10,59.9468631007035,
,2,Initial/Doubled/Chime_A.wav,New,,,,,,,,,0,77,77,77,,,,,,,,,,,,,,,,,,,,,,,,,,,,,,,,,,,,,,,,,,,,,,,,,,,,,,,,,,,,,,,,,,,,,,,,,,,,,,,,,,,,,,,,,,,,,468.93971900001634,None,470.4563866200275,None,470.4632771000033,None,470.4632771000033,None,472.973103300028,None,2,1,0.7895061000017449,472.973103300028,None,,001,2021_Feb_14_1757,GuessTheSound,2020.2.10,59.9468631007035,
,2,Growl_B.wav,Similar,,,,,,,,,0,78,78,78,,,,,,,,,,,,,,,,,,,,,,,,,,,,,,,,,,,,,,,,,,,,,,,,,,,,,,,,,,,,,,,,,,,,,,,,,,,,,,,,,,,,,,,,,,,,,473.7896534000174,None,475.3064487200114,None,475.3103115000413,None,475.3103115000413,None,477.82304809999187,None,2,1,1.1792262000381015,477.82304809999187,None,,001,2021_Feb_14_1757,GuessTheSound,2020.2.10,59.9468631007035,
,1,Initial/Doubled/Writing_A.wav,Old,,,,,,,,,0,79,79,79,,,,,,,,,,,,,,,,,,,,,,,,,,,,,,,,,,,,,,,,,,,,,,,,,,,,,,,,,,,,,,,,,,,,,,,,,,,,,,,,,,,,,,,,,,,,,479.02348989999155,None,480.53975771998523,None,480.53862880001543,None,480.53862880001543,None,483.0398865999887,None,2,0,2.7809567999793217,483.0398865999887,None,,001,2021_Feb_14_1757,GuessTheSound,2020.2.10,59.9468631007035,
,1,Initial/Repeat/Bagpipe.wav,Old,,,,,,,,,0,80,80,80,,,,,,,,,,,,,,,,,,,,,,,,,,,,,,,,,,,,,,,,,,,,,,,,,,,,,,,,,,,,,,,,,,,,,,,,,,,,,,,,,,,,,,,,,,,,,485.84079930000007,None,487.35612856001245,None,487.36508680001134,None,487.36508680001134,None,489.739936100028,None,1,1,0.36358490004204214,489.739936100028,None,,001,2021_Feb_14_1757,GuessTheSound,2020.2.10,59.9468631007035,
,1,Initial/NoRepeat/Droplet_B.wav,Old,,,,,,,,,0,81,81,81,,,,,,,,,,,,,,,,,,,,,,,,,,,,,,,,,,,,,,,,,,,,,,,,,,,,,,,,,,,,,,,,,,,,,,,,,,,,,,,,,,,,,,,,,,,,,490.1228647000389,None,491.63944312001115,None,491.6378158000298,None,491.6378158000298,None,493.79218360001687,None,2,0,1.0041288000065833,493.79218360001687,None,,001,2021_Feb_14_1757,GuessTheSound,2020.2.10,59.9468631007035,
,2,Dog_C.wav,Similar,,,,,,,,,0,82,82,82,,,,,,,,,,,,,,,,,,,,,,,,,,,,,,,,,,,,,,,,,,,,,,,,,,,,,,,,,,,,,,,,,,,,,,,,,,,,,,,,,,,,,,,,,,,,,494.8290512000094,None,496.3560220200103,None,496.3578467000043,None,496.3578467000043,None,498.3728723000386,None,2,1,1.589169800048694,498.3728723000386,None,,001,2021_Feb_14_1757,GuessTheSound,2020.2.10,59.9468631007035,
,1,Initial/NoRepeat/Faucet_A.wav,Old,,,,,,,,,0,83,83,83,,,,,,,,,,,,,,,,,,,,,,,,,,,,,,,,,,,,,,,,,,,,,,,,,,,,,,,,,,,,,,,,,,,,,,,,,,,,,,,,,,,,,,,,,,,,,499.9892694000155,None,501.50588372002824,None,501.50106740003685,None,501.50106740003685,None,503.9898046000162,None,1,1,0.7849731000023894,503.9898046000162,None,,001,2021_Feb_14_1757,GuessTheSound,2020.2.10,59.9468631007035,
,1,Test/Foils/Bullfrog.wav,Old,,,,,,,,,0,84,84,84,,,,,,,,,,,,,,,,,,,,,,,,,,,,,,,,,,,,,,,,,,,,,,,,,,,,,,,,,,,,,,,,,,,,,,,,,,,,,,,,,,,,,,,,,,,,,504.8061003999901,None,506.3228748199996,None,506.3174658000353,None,506.3174658000353,None,508.82288930000504,None,1,1,0.6185041000135243,508.82288930000504,None,,001,2021_Feb_14_1757,GuessTheSound,2020.2.10,59.9468631007035,
,2,Initial/Doubled/HairDryer_A.wav,New,,,,,,,,,0,85,85,85,,,,,,,,,,,,,,,,,,,,,,,,,,,,,,,,,,,,,,,,,,,,,,,,,,,,,,,,,,,,,,,,,,,,,,,,,,,,,,,,,,,,,,,,,,,,,509.4724877999979,None,511.00600498001444,None,511.007714700012,None,511.007714700012,None,513.5226485000458,None,2,1,0.40995520004071295,513.5226485000458,None,,001,2021_Feb_14_1757,GuessTheSound,2020.2.10,59.9468631007035,
,2,Test/Foils/Wind_B.wav,New,,,,,,,,,0,86,86,86,,,,,,,,,,,,,,,,,,,,,,,,,,,,,,,,,,,,,,,,,,,,,,,,,,,,,,,,,,,,,,,,,,,,,,,,,,,,,,,,,,,,,,,,,,,,,513.9571544000064,None,515.5227614000032,None,515.5246323000174,None,515.5246323000174,None,518.0395996000152,None,2,1,0.7425145999877714,518.0395996000152,None,,001,2021_Feb_14_1757,GuessTheSound,2020.2.10,59.9468631007035,
,2,Growl_D.wav,Similar,,,,,,,,,0,87,87,87,,,,,,,,,,,,,,,,,,,,,,,,,,,,,,,,,,,,,,,,,,,,,,,,,,,,,,,,,,,,,,,,,,,,,,,,,,,,,,,,,,,,,,,,,,,,,518.8060581000173,None,520.3389849800209,None,520.3354879000108,None,520.3354879000108,None,522.8393188000191,None,2,1,1.8302917000255547,522.8393188000191,None,,001,2021_Feb_14_1757,GuessTheSound,2020.2.10,59.9468631007035,
,2,Initial/Doubled/Bubbles_A.wav,New,,,,,,,,,0,88,88,88,,,,,,,,,,,,,,,,,,,,,,,,,,,,,,,,,,,,,,,,,,,,,,,,,,,,,,,,,,,,,,,,,,,,,,,,,,,,,,,,,,,,,,,,,,,,,524.6895319999894,None,526.2223966799851,None,526.233623200038,None,526.233623200038,None,528.6560280999984,None,2,1,0.4422924999962561,528.6560280999984,None,,001,2021_Feb_14_1757,GuessTheSound,2020.2.10,59.9468631007035,
,2,Test/Lures/Chime_B.wav,Similar,,,,,,,,,0,89,89,89,,,,,,,,,,,,,,,,,,,,,,,,,,,,,,,,,,,,,,,,,,,,,,,,,,,,,,,,,,,,,,,,,,,,,,,,,,,,,,,,,,,,,,,,,,,,,529.1226112000295,None,530.689148400008,None,530.6971935000038,None,530.6971935000038,None,533.2062062000041,None,2,1,0.6470391999464482,533.2062062000041,None,,001,2021_Feb_14_1757,GuessTheSound,2020.2.10,59.9468631007035,
,1,Initial/Repeat/Bagpipe.wav,Old,,,,,,,,,0,90,90,90,,,,,,,,,,,,,,,,,,,,,,,,,,,,,,,,,,,,,,,,,,,,,,,,,,,,,,,,,,,,,,,,,,,,,,,,,,,,,,,,,,,,,,,,,,,,,533.8742283000029,None,535.3889382600144,None,535.4004198000184,None,535.4004198000184,None,537.7725324000348,None,1,1,0.4359624999924563,537.7725324000348,None,,001,2021_Feb_14_1757,GuessTheSound,2020.2.10,59.9468631007035,
,2,Initial/NoRepeat/Baby_B.wav,New,,,,,,,,,0,91,91,91,,,,,,,,,,,,,,,,,,,,,,,,,,,,,,,,,,,,,,,,,,,,,,,,,,,,,,,,,,,,,,,,,,,,,,,,,,,,,,,,,,,,,,,,,,,,,538.2389290000428,None,539.8056242000021,None,539.8056240000296,None,539.8056240000296,None,542.3059733000118,None,2,1,0.71804849995533,542.3059733000118,None,,001,2021_Feb_14_1757,GuessTheSound,2020.2.10,59.9468631007035,
,1,Initial/NoRepeat/Faucet_A.wav,Old,,,,,,,,,0,92,92,92,,,,,,,,,,,,,,,,,,,,,,,,,,,,,,,,,,,,,,,,,,,,,,,,,,,,,,,,,,,,,,,,,,,,,,,,,,,,,,,,,,,,,,,,,,,,,543.0563397000078,None,544.556011260004,None,544.5686266000266,None,544.5686266000266,None,547.0559385000379,None,1,1,1.2792179000098258,547.0559385000379,None,,001,2021_Feb_14_1757,GuessTheSound,2020.2.10,59.9468631007035,
,1,Initial/Doubled/HairDryer_A.wav,Old,,,,,,,,,0,93,93,93,,,,,,,,,,,,,,,,,,,,,,,,,,,,,,,,,,,,,,,,,,,,,,,,,,,,,,,,,,,,,,,,,,,,,,,,,,,,,,,,,,,,,,,,,,,,,548.3556325000245,None,549.872510020004,None,549.8697277000174,None,549.8697277000174,None,552.3723371000378,None,1,1,0.8068781000329182,552.3723371000378,None,,001,2021_Feb_14_1757,GuessTheSound,2020.2.10,59.9468631007035,
,2,Initial/Repeat/Phone_A.wav,New,,,,,,,,,0,94,94,94,,,,,,,,,,,,,,,,,,,,,,,,,,,,,,,,,,,,,,,,,,,,,,,,,,,,,,,,,,,,,,,,,,,,,,,,,,,,,,,,,,,,,,,,,,,,,553.2053417999996,None,554.7389446800283,None,554.7495609000325,None,554.7495609000325,None,557.2559892000281,None,2,1,0.4223485000547953,557.2559892000281,None,,001,2021_Feb_14_1757,GuessTheSound,2020.2.10,59.9468631007035,
,2,Test/Foils/Donkey.wav,New,,,,,,,,,0,95,95,95,,,,,,,,,,,,,,,,,,,,,,,,,,,,,,,,,,,,,,,,,,,,,,,,,,,,,,,,,,,,,,,,,,,,,,,,,,,,,,,,,,,,,,,,,,,,,557.7055150000378,None,559.2554980399901,None,559.2544059000211,None,559.2544059000211,None,561.7574317000108,None,2,1,0.569289100007154,561.7574317000108,None,,001,2021_Feb_14_1757,GuessTheSound,2020.2.10,59.9468631007035,
,2,Initial/NoRepeat/Sleighbells_B.wav,New,,,,,,,,,0,96,96,96,,,,,,,,,,,,,,,,,,,,,,,,,,,,,,,,,,,,,,,,,,,,,,,,,,,,,,,,,,,,,,,,,,,,,,,,,,,,,,,,,,,,,,,,,,,,,562.3554116000305,None,563.9054919400252,None,563.8991725000087,None,563.8991725000087,None,566.3222663000342,None,2,1,0.4289720999659039,566.3222663000342,None,,001,2021_Feb_14_1757,GuessTheSound,2020.2.10,59.9468631007035,
,2,Chime_C.wav,Similar,,,,,,,,,0,97,97,97,,,,,,,,,,,,,,,,,,,,,,,,,,,,,,,,,,,,,,,,,,,,,,,,,,,,,,,,,,,,,,,,,,,,,,,,,,,,,,,,,,,,,,,,,,,,,566.7721509000403,None,568.2889105199952,None,568.2954402000178,None,568.2954402000178,None,570.8056804999942,None,2,1,0.6655952000292018,570.8056804999942,None,,001,2021_Feb_14_1757,GuessTheSound,2020.2.10,59.9468631007035,
,1,Test/Foils/Wind_B.wav,Old,,,,,,,,,0,98,98,98,,,,,,,,,,,,,,,,,,,,,,,,,,,,,,,,,,,,,,,,,,,,,,,,,,,,,,,,,,,,,,,,,,,,,,,,,,,,,,,,,,,,,,,,,,,,,571.4886406000005,None,573.00525582002,None,573.0010212000343,None,573.0010212000343,None,575.5055997000309,None,1,1,1.0430887000402436,575.5055997000309,None,,001,2021_Feb_14_1757,GuessTheSound,2020.2.10,59.9468631007035,
,1,Initial/Doubled/Bubbles_A.wav,Old,,,,,,,,,0,99,99,99,,,,,,,,,,,,,,,,,,,,,,,,,,,,,,,,,,,,,,,,,,,,,,,,,,,,,,,,,,,,,,,,,,,,,,,,,,,,,,,,,,,,,,,,,,,,,576.572962300037,None,578.088799720013,None,578.084354599996,None,578.084354599996,None,580.5055603000219,None,1,1,0.43046880001202226,580.5055603000219,None,,001,2021_Feb_14_1757,GuessTheSound,2020.2.10,59.9468631007035,
,2,Test/Foils/Typing.wav,New,,,,,,,,,0,100,100,100,,,,,,,,,,,,,,,,,,,,,,,,,,,,,,,,,,,,,,,,,,,,,,,,,,,,,,,,,,,,,,,,,,,,,,,,,,,,,,,,,,,,,,,,,,,,,580.9567667000229,None,582.5219671400147,None,582.5240325999912,None,582.5240325999912,None,585.0389744000277,None,1,0,0.949845600000117,585.0389744000277,None,,001,2021_Feb_14_1757,GuessTheSound,2020.2.10,59.9468631007035,
,2,Baby_A.wav,Similar,,,,,,,,,0,101,101,101,,,,,,,,,,,,,,,,,,,,,,,,,,,,,,,,,,,,,,,,,,,,,,,,,,,,,,,,,,,,,,,,,,,,,,,,,,,,,,,,,,,,,,,,,,,,,586.0232334000175,None,587.5383323600224,None,587.5487755000358,None,587.5487755000358,None,590.0555015000282,None,2,1,0.7192649000207894,590.0555015000282,None,,001,2021_Feb_14_1757,GuessTheSound,2020.2.10,59.9468631007035,
,2,Test/Foils/DialTone.wav,New,,,,,,,,,0,102,102,102,,,,,,,,,,,,,,,,,,,,,,,,,,,,,,,,,,,,,,,,,,,,,,,,,,,,,,,,,,,,,,,,,,,,,,,,,,,,,,,,,,,,,,,,,,,,,590.8051265000249,None,592.3388686800084,None,592.343549799989,None,592.343549799989,None,594.8552617999958,None,2,1,0.3367970999679528,594.8552617999958,None,,001,2021_Feb_14_1757,GuessTheSound,2020.2.10,59.9468631007035,
,1,Test/Foils/Donkey.wav,Old,,,,,,,,,0,103,103,103,,,,,,,,,,,,,,,,,,,,,,,,,,,,,,,,,,,,,,,,,,,,,,,,,,,,,,,,,,,,,,,,,,,,,,,,,,,,,,,,,,,,,,,,,,,,,595.2233584999922,None,596.7549586200271,None,596.7491134000011,None,596.7491134000011,None,599.2551009000163,None,1,1,0.9243520000018179,599.2551009000163,None,,001,2021_Feb_14_1757,GuessTheSound,2020.2.10,59.9468631007035,
,2,Phone_D.wav,Similar,,,,,,,,,0,104,104,104,,,,,,,,,,,,,,,,,,,,,,,,,,,,,,,,,,,,,,,,,,,,,,,,,,,,,,,,,,,,,,,,,,,,,,,,,,,,,,,,,,,,,,,,,,,,,600.2064423999982,None,601.7382894199923,None,601.7415320000146,None,601.7415320000146,None,604.25546700001,None,2,1,1.0985519000096247,604.25546700001,None,,001,2021_Feb_14_1757,GuessTheSound,2020.2.10,59.9468631007035,
,1,Initial/Doubled/HairDryer_A.wav,Old,,,,,,,,,0,105,105,105,,,,,,,,,,,,,,,,,,,,,,,,,,,,,,,,,,,,,,,,,,,,,,,,,,,,,,,,,,,,,,,,,,,,,,,,,,,,,,,,,,,,,,,,,,,,,605.3716329000308,None,606.8718086600245,None,606.8832028000033,None,606.8832028000033,None,609.388398900046,None,1,1,0.584914899955038,609.388398900046,None,,001,2021_Feb_14_1757,GuessTheSound,2020.2.10,59.9468631007035,
,1,Initial/NoRepeat/Sleighbells_B.wav,Old,,,,,,,,,0,106,106,106,,,,,,,,,,,,,,,,,,,,,,,,,,,,,,,,,,,,,,,,,,,,,,,,,,,,,,,,,,,,,,,,,,,,,,,,,,,,,,,,,,,,,,,,,,,,,609.988841000013,None,611.4881063600012,None,611.4990743999952,None,611.4990743999952,None,613.9215447999886,None,1,1,0.38611459999810904,613.9215447999886,None,,001,2021_Feb_14_1757,GuessTheSound,2020.2.10,59.9468631007035,
,1,Test/Foils/Wind_B.wav,Old,,,,,,,,,0,107,107,107,,,,,,,,,,,,,,,,,,,,,,,,,,,,,,,,,,,,,,,,,,,,,,,,,,,,,,,,,,,,,,,,,,,,,,,,,,,,,,,,,,,,,,,,,,,,,614.3381114000222,None,615.8380750600306,None,615.8491179000121,None,615.8491179000121,None,618.3551123000216,None,1,1,1.1185330000007525,618.3551123000216,None,,001,2021_Feb_14_1757,GuessTheSound,2020.2.10,59.9468631007035,
,1,Initial/Doubled/Bubbles_A.wav,Old,,,,,,,,,0,108,108,108,,,,,,,,,,,,,,,,,,,,,,,,,,,,,,,,,,,,,,,,,,,,,,,,,,,,,,,,,,,,,,,,,,,,,,,,,,,,,,,,,,,,,,,,,,,,,619.5050473000156,None,621.0215359200024,None,621.0199336000369,None,621.0199336000369,None,623.4385325000039,None,1,1,0.3776439999928698,623.4385325000039,None,,001,2021_Feb_14_1757,GuessTheSound,2020.2.10,59.9468631007035,
,2,Initial/Doubled/Cough_A.wav,New,,,,,,,,,0,109,109,109,,,,,,,,,,,,,,,,,,,,,,,,,,,,,,,,,,,,,,,,,,,,,,,,,,,,,,,,,,,,,,,,,,,,,,,,,,,,,,,,,,,,,,,,,,,,,623.8381271000253,None,625.3880500399856,None,625.3991421000101,None,625.3991421000101,None,627.1051088999957,None,2,1,0.981285999994725,627.1051088999957,None,,001,2021_Feb_14_1757,GuessTheSound,2020.2.10,59.9468631007035,
,2,Initial/Repeat/Cup.wav,New,,,,,,,,,0,110,110,110,,,,,,,,,,,,,,,,,,,,,,,,,,,,,,,,,,,,,,,,,,,,,,,,,,,,,,,,,,,,,,,,,,,,,,,,,,,,,,,,,,,,,,,,,,,,,628.1046950000455,None,629.6548813400324,None,629.6504761000397,None,629.6504761000397,None,630.9884296000237,None,2,1,0.6204120999900624,630.9884296000237,None,,001,2021_Feb_14_1757,GuessTheSound,2020.2.10,59.9468631007035,
,2,Baby_C.wav,Similar,,,,,,,,,0,111,111,111,,,,,,,,,,,,,,,,,,,,,,,,,,,,,,,,,,,,,,,,,,,,,,,,,,,,,,,,,,,,,,,,,,,,,,,,,,,,,,,,,,,,,,,,,,,,,631.6379044000059,None,633.1545922199962,None,633.160140699998,None,633.160140699998,None,635.6550105999922,None,2,1,0.9321562999975868,635.6550105999922,None,,001,2021_Feb_14_1757,GuessTheSound,2020.2.10,59.9468631007035,
,1,Test/Foils/Typing.wav,Old,,,,,,,,,0,112,112,112,,,,,,,,,,,,,,,,,,,,,,,,,,,,,,,,,,,,,,,,,,,,,,,,,,,,,,,,,,,,,,,,,,,,,,,,,,,,,,,,,,,,,,,,,,,,,636.6056402000249,None,638.1213899200316,None,638.1161193000153,None,638.1161193000153,None,640.6213347000303,None,2,0,0.8302803999977186,640.6213347000303,None,,001,2021_Feb_14_1757,GuessTheSound,2020.2.10,59.9468631007035,
,1,Test/Foils/DialTone.wav,Old,,,,,,,,,0,113,113,113,,,,,,,,,,,,,,,,,,,,,,,,,,,,,,,,,,,,,,,,,,,,,,,,,,,,,,,,,,,,,,,,,,,,,,,,,,,,,,,,,,,,,,,,,,,,,641.4728950000135,None,642.9877840599918,None,642.9958792999969,None,642.9958792999969,None,645.5049043000326,None,1,1,1.6155611000140198,645.5049043000326,None,,001,2021_Feb_14_1757,GuessTheSound,2020.2.10,59.9468631007035,
,2,Phone_C.wav,Similar,,,,,,,,,0,114,114,114,,,,,,,,,,,,,,,,,,,,,,,,,,,,,,,,,,,,,,,,,,,,,,,,,,,,,,,,,,,,,,,,,,,,,,,,,,,,,,,,,,,,,,,,,,,,,647.1377606000169,None,648.6544818200286,None,648.6508779000142,None,648.6508779000142,None,651.1547481000307,None,2,1,1.2321513000060804,651.1547481000307,None,,001,2021_Feb_14_1757,GuessTheSound,2020.2.10,59.9468631007035,
,2,Initial/Repeat/IceDrop.wav,New,,,,,,,,,0,115,115,115,,,,,,,,,,,,,,,,,,,,,,,,,,,,,,,,,,,,,,,,,,,,,,,,,,,,,,,,,,,,,,,,,,,,,,,,,,,,,,,,,,,,,,,,,,,,,652.4077840000391,None,653.9544212800159,None,653.9554990000324,None,653.9554990000324,None,656.4547312000068,None,2,1,0.8246295999852009,656.4547312000068,None,,001,2021_Feb_14_1757,GuessTheSound,2020.2.10,59.9468631007035,
,1,Test/Foils/Donkey.wav,Old,,,,,,,,,0,116,116,116,,,,,,,,,,,,,,,,,,,,,,,,,,,,,,,,,,,,,,,,,,,,,,,,,,,,,,,,,,,,,,,,,,,,,,,,,,,,,,,,,,,,,,,,,,,,,657.3044489000458,None,658.8213392200064,None,658.8166642000433,None,658.8166642000433,None,661.3213296000031,None,1,1,0.6499280999996699,661.3213296000031,None,,001,2021_Feb_14_1757,GuessTheSound,2020.2.10,59.9468631007035,
,1,Initial/NoRepeat/Sleighbells_B.wav,Old,,,,,,,,,0,117,117,117,,,,,,,,,,,,,,,,,,,,,,,,,,,,,,,,,,,,,,,,,,,,,,,,,,,,,,,,,,,,,,,,,,,,,,,,,,,,,,,,,,,,,,,,,,,,,661.986524900014,None,663.5030281199956,None,663.4990547000198,None,663.4990547000198,None,665.9202654000255,None,1,1,0.01768429996445775,665.9202654000255,None,,001,2021_Feb_14_1757,GuessTheSound,2020.2.10,59.9468631007035,
,2,Initial/NoRepeat/Goat_B.wav,New,,,,,,,,,0,118,118,118,,,,,,,,,,,,,,,,,,,,,,,,,,,,,,,,,,,,,,,,,,,,,,,,,,,,,,,,,,,,,,,,,,,,,,,,,,,,,,,,,,,,,,,,,,,,,665.9535418000305,None,667.5038927399902,None,667.4990802000393,None,667.4990802000393,None,669.6546391000156,None,2,1,0.7368290999438614,669.6546391000156,None,,001,2021_Feb_14_1757,GuessTheSound,2020.2.10,59.9468631007035,
,2,Initial/Doubled/Siren_A.wav,New,,,,,,,,,0,119,119,119,,,,,,,,,,,,,,,,,,,,,,,,,,,,,,,,,,,,,,,,,,,,,,,,,,,,,,,,,,,,,,,,,,,,,,,,,,,,,,,,,,,,,,,,,,,,,670.4208207000047,None,671.9710287399822,None,671.9705572000239,None,671.9705572000239,None,674.4711376000196,None,2,1,1.7965075999964029,674.4711376000196,None,,001,2021_Feb_14_1757,GuessTheSound,2020.2.10,59.9468631007035,
,2,Cough_D.wav,Similar,,,,,,,,,0,120,120,120,,,,,,,,,,,,,,,,,,,,,,,,,,,,,,,,,,,,,,,,,,,,,,,,,,,,,,,,,,,,,,,,,,,,,,,,,,,,,,,,,,,,,,,,,,,,,676.289054199995,None,677.821252719988,None,677.8265600000159,None,677.8265600000159,None,679.5879307000432,None,2,1,0.9050648999982513,679.5879307000432,None,,001,2021_Feb_14_1757,GuessTheSound,2020.2.10,59.9468631007035,
,1,Test/Foils/Typing.wav,Old,,,,,,,,,0,121,121,121,,,,,,,,,,,,,,,,,,,,,,,,,,,,,,,,,,,,,,,,,,,,,,,,,,,,,,,,,,,,,,,,,,,,,,,,,,,,,,,,,,,,,,,,,,,,,680.5207202000311,None,682.0374202199978,None,682.0323111999896,None,682.0323111999896,None,684.5379213000415,None,2,0,0.925190600042697,684.5379213000415,None,,001,2021_Feb_14_1757,GuessTheSound,2020.2.10,59.9468631007035,
,1,Initial/Repeat/Cup.wav,Old,,,,,,,,,0,122,122,122,,,,,,,,,,,,,,,,,,,,,,,,,,,,,,,,,,,,,,,,,,,,,,,,,,,,,,,,,,,,,,,,,,,,,,,,,,,,,,,,,,,,,,,,,,,,,685.4879562000278,None,686.9875524600327,None,686.9962406000122,None,686.9962406000122,None,688.3210783000104,None,1,1,1.230744100001175,688.3210783000104,None,,001,2021_Feb_14_1757,GuessTheSound,2020.2.10,59.9468631007035,
,1,Test/Foils/DialTone.wav,Old,,,,,,,,,0,123,123,123,,,,,,,,,,,,,,,,,,,,,,,,,,,,,,,,,,,,,,,,,,,,,,,,,,,,,,,,,,,,,,,,,,,,,,,,,,,,,,,,,,,,,,,,,,,,,689.5706528000301,None,691.0875217200023,None,691.0830627999967,None,691.0830627999967,None,693.5880565000116,None,1,1,0.2349324999959208,693.5880565000116,None,,001,2021_Feb_14_1757,GuessTheSound,2020.2.10,59.9468631007035,
,2,Initial/NoRepeat/Cow.wav,New,,,,,,,,,0,124,124,124,,,,,,,,,,,,,,,,,,,,,,,,,,,,,,,,,,,,,,,,,,,,,,,,,,,,,,,,,,,,,,,,,,,,,,,,,,,,,,,,,,,,,,,,,,,,,693.8539672000334,None,695.4038570400327,None,695.4031606999924,None,695.4031606999924,None,697.2379479000228,None,2,1,0.5466721999691799,697.2379479000228,None,,001,2021_Feb_14_1757,GuessTheSound,2020.2.10,59.9468631007035,
,2,Initial/Doubled/Chicken_A.wav,New,,,,,,,,,0,125,125,125,,,,,,,,,,,,,,,,,,,,,,,,,,,,,,,,,,,,,,,,,,,,,,,,,,,,,,,,,,,,,,,,,,,,,,,,,,,,,,,,,,,,,,,,,,,,,697.8041162000154,None,699.3207746200146,None,699.3270864000078,None,699.3270864000078,None,701.0041632000357,None,2,1,1.0260355000500567,701.0041632000357,None,,001,2021_Feb_14_1757,GuessTheSound,2020.2.10,59.9468631007035,
,2,Initial/NoRepeat/Fireworks.wav,New,,,,,,,,,0,126,126,126,,,,,,,,,,,,,,,,,,,,,,,,,,,,,,,,,,,,,,,,,,,,,,,,,,,,,,,,,,,,,,,,,,,,,,,,,,,,,,,,,,,,,,,,,,,,,702.0548911000369,None,703.5875859800202,None,703.5965862000012,None,703.5965862000012,None,706.1042393000098,None,2,1,0.6205305000185035,706.1042393000098,None,,001,2021_Feb_14_1757,GuessTheSound,2020.2.10,59.9468631007035,
,2,Test/Lures/Guitar_B.wav,New,,,,,,,,,0,127,127,127,,,,,,,,,,,,,,,,,,,,,,,,,,,,,,,,,,,,,,,,,,,,,,,,,,,,,,,,,,,,,,,,,,,,,,,,,,,,,,,,,,,,,,,,,,,,,706.7539067000034,None,708.2705914200283,None,708.2769071999937,None,708.2769071999937,None,710.6042134000454,None,2,1,0.3102223000023514,710.6042134000454,None,,001,2021_Feb_14_1757,GuessTheSound,2020.2.10,59.9468631007035,
,2,Cough_C.wav,Similar,,,,,,,,,0,128,128,128,,,,,,,,,,,,,,,,,,,,,,,,,,,,,,,,,,,,,,,,,,,,,,,,,,,,,,,,,,,,,,,,,,,,,,,,,,,,,,,,,,,,,,,,,,,,,710.9385045000236,None,712.4705730200162,None,712.4693130000378,None,712.4693130000378,None,713.9374972000369,None,1,0,0.6762232999899425,713.9374972000369,None,,001,2021_Feb_14_1757,GuessTheSound,2020.2.10,59.9468631007035,
,1,Initial/Repeat/IceDrop.wav,Old,,,,,,,,,0,129,129,129,,,,,,,,,,,,,,,,,,,,,,,,,,,,,,,,,,,,,,,,,,,,,,,,,,,,,,,,,,,,,,,,,,,,,,,,,,,,,,,,,,,,,,,,,,,,,714.6383440000354,None,716.1539148600248,None,716.1639921999886,None,716.1639921999886,None,718.6707804999896,None,2,0,0.4784300999599509,718.6707804999896,None,,001,2021_Feb_14_1757,GuessTheSound,2020.2.10,59.9468631007035,
,2,Goat_A.wav,Similar,,,,,,,,,0,130,130,130,,,,,,,,,,,,,,,,,,,,,,,,,,,,,,,,,,,,,,,,,,,,,,,,,,,,,,,,,,,,,,,,,,,,,,,,,,,,,,,,,,,,,,,,,,,,,719.1703715000185,None,720.6871764200273,None,720.6935163000016,None,720.6935163000016,None,723.2026819000021,None,2,1,0.47693209996214136,723.2026819000021,None,,001,2021_Feb_14_1757,GuessTheSound,2020.2.10,59.9468631007035,
,2,Siren_C.wav,Similar,,,,,,,,,0,131,131,131,,,,,,,,,,,,,,,,,,,,,,,,,,,,,,,,,,,,,,,,,,,,,,,,,,,,,,,,,,,,,,,,,,,,,,,,,,,,,,,,,,,,,,,,,,,,,723.7026414000429,None,725.2193244199966,None,725.226555900008,None,725.226555900008,None,727.7033827000414,None,2,1,0.3845488000079058,727.7033827000414,None,,001,2021_Feb_14_1757,GuessTheSound,2020.2.10,59.9468631007035,
,1,Initial/Repeat/Cup.wav,Old,,,,,,,,,0,132,132,132,,,,,,,,,,,,,,,,,,,,,,,,,,,,,,,,,,,,,,,,,,,,,,,,,,,,,,,,,,,,,,,,,,,,,,,,,,,,,,,,,,,,,,,,,,,,,728.103128399991,None,729.6037188599992,None,729.614154800016,None,729.614154800016,None,730.937313100032,None,2,0,0.3891002000309527,730.937313100032,None,,001,2021_Feb_14_1757,GuessTheSound,2020.2.10,59.9468631007035,
,1,Test/Lures/Guitar_B.wav,Old,,,,,,,,,0,133,133,133,,,,,,,,,,,,,,,,,,,,,,,,,,,,,,,,,,,,,,,,,,,,,,,,,,,,,,,,,,,,,,,,,,,,,,,,,,,,,,,,,,,,,,,,,,,,,731.3534895000048,None,732.8703908199909,None,732.8677443999914,None,732.8677443999914,None,735.1871669000247,None,1,1,0.559691600035876,735.1871669000247,None,,001,2021_Feb_14_1757,GuessTheSound,2020.2.10,59.9468631007035,
,1,Initial/NoRepeat/Cow.wav,Old,,,,,,,,,0,134,134,134,,,,,,,,,,,,,,,,,,,,,,,,,,,,,,,,,,,,,,,,,,,,,,,,,,,,,,,,,,,,,,,,,,,,,,,,,,,,,,,,,,,,,,,,,,,,,735.770229900023,None,737.2870615200022,None,737.2836339999922,None,737.2836339999922,None,739.1203984000022,None,1,1,0.35621529998024926,739.1203984000022,None,,001,2021_Feb_14_1757,GuessTheSound,2020.2.10,59.9468631007035,
,1,Initial/Repeat/IceDrop.wav,Old,,,,,,,,,0,135,135,135,,,,,,,,,,,,,,,,,,,,,,,,,,,,,,,,,,,,,,,,,,,,,,,,,,,,,,,,,,,,,,,,,,,,,,,,,,,,,,,,,,,,,,,,,,,,,739.5038781000185,None,741.0201367200002,None,741.0193808000186,None,741.0193808000186,None,743.520371199993,None,1,1,0.6021386999636889,743.520371199993,None,,001,2021_Feb_14_1757,GuessTheSound,2020.2.10,59.9468631007035,
,1,Initial/Doubled/Chicken_A.wav,Old,,,,,,,,,0,136,136,136,,,,,,,,,,,,,,,,,,,,,,,,,,,,,,,,,,,,,,,,,,,,,,,,,,,,,,,,,,,,,,,,,,,,,,,,,,,,,,,,,,,,,,,,,,,,,744.1533987000003,None,745.6535471600189,None,745.6653643000172,None,745.6653643000172,None,747.353886900004,None,1,1,0.6795843000290915,747.353886900004,None,,001,2021_Feb_14_1757,GuessTheSound,2020.2.10,59.9468631007035,
,1,Initial/NoRepeat/Fireworks.wav,Old,,,,,,,,,0,137,137,137,,,,,,,,,,,,,,,,,,,,,,,,,,,,,,,,,,,,,,,,,,,,,,,,,,,,,,,,,,,,,,,,,,,,,,,,,,,,,,,,,,,,,,,,,,,,,748.054331900028,None,749.5702320200157,None,749.5675413000281,None,749.5675413000281,None,752.0702390000224,None,1,1,1.0433763000182807,752.0702390000224,None,,001,2021_Feb_14_1757,GuessTheSound,2020.2.10,59.9468631007035,
,2,Goat_C.wav,Similar,,,,,,,,,0,138,138,138,,,,,,,,,,,,,,,,,,,,,,,,,,,,,,,,,,,,,,,,,,,,,,,,,,,,,,,,,,,,,,,,,,,,,,,,,,,,,,,,,,,,,,,,,,,,,753.1377673000097,None,754.67020111999,None,754.673093200021,None,754.673093200021,None,756.4870334000443,None,2,1,0.7787348999991082,756.4870334000443,None,,001,2021_Feb_14_1757,GuessTheSound,2020.2.10,59.9468631007035,
,1,Initial/NoRepeat/Cow.wav,Old,,,,,,,,,0,139,139,139,,,,,,,,,,,,,,,,,,,,,,,,,,,,,,,,,,,,,,,,,,,,,,,,,,,,,,,,,,,,,,,,,,,,,,,,,,,,,,,,,,,,,,,,,,,,,757.2869094000198,None,758.7866472599969,None,758.7960967000108,None,758.7960967000108,None,760.6369456000393,None,1,1,0.5612282999791205,760.6369456000393,None,,001,2021_Feb_14_1757,GuessTheSound,2020.2.10,59.9468631007035,
,1,Test/Lures/Guitar_B.wav,Old,,,,,,,,,0,140,140,140,,,,,,,,,,,,,,,,,,,,,,,,,,,,,,,,,,,,,,,,,,,,,,,,,,,,,,,,,,,,,,,,,,,,,,,,,,,,,,,,,,,,,,,,,,,,,761.2200289000175,None,762.7366902200388,None,762.7341007000068,None,762.7341007000068,None,765.0535576000111,None,1,1,0.6056583999888971,765.0535576000111,None,,001,2021_Feb_14_1757,GuessTheSound,2020.2.10,59.9468631007035,
,1,Initial/Doubled/Chicken_A.wav,Old,,,,,,,,,0,141,141,141,,,,,,,,,,,,,,,,,,,,,,,,,,,,,,,,,,,,,,,,,,,,,,,,,,,,,,,,,,,,,,,,,,,,,,,,,,,,,,,,,,,,,,,,,,,,,765.6867134000058,None,767.1864601599925,None,767.1967652000021,None,767.1967652000021,None,768.8701796000241,None,1,1,0.497075000021141,768.8701796000241,None,,001,2021_Feb_14_1757,GuessTheSound,2020.2.10,59.9468631007035,
,2,Siren_B.wav,Similar,,,,,,,,,0,142,142,142,,,,,,,,,,,,,,,,,,,,,,,,,,,,,,,,,,,,,,,,,,,,,,,,,,,,,,,,,,,,,,,,,,,,,,,,,,,,,,,,,,,,,,,,,,,,,769.3879431000096,None,770.9198944200411,None,770.9231449000072,None,770.9231449000072,None,773.4369538000319,None,2,1,0.7971923000295646,773.4369538000319,None,,001,2021_Feb_14_1757,GuessTheSound,2020.2.10,59.9468631007035,
,1,Initial/NoRepeat/Fireworks.wav,Old,,,,,,,,,0,143,143,143,,,,,,,,,,,,,,,,,,,,,,,,,,,,,,,,,,,,,,,,,,,,,,,,,,,,,,,,,,,,,,,,,,,,,,,,,,,,,,,,,,,,,,,,,,,,,774.2552824000013,None,775.7864803200005,None,775.7798771000234,None,775.7798771000234,None,778.2868954000296,None,1,1,0.54637300001923,778.2868954000296,None,,001,2021_Feb_14_1757,GuessTheSound,2020.2.10,59.9468631007035,
