SoundFile,Correct,Correct2,Type,Trial,PracticeTrials.thisRepN,PracticeTrials.thisTrialN,PracticeTrials.thisN,PracticeTrials.thisIndex,trials.thisRepN,trials.thisTrialN,trials.thisN,trials.thisIndex,InstructionTxt.started,InstructionTxt.stopped,WelcomContinue.started,WelcomContinue.stopped,VolumeBeginTxt.started,VolumeBeginTxt.stopped,VolumeContinueKey.keys,VolumeContinueKey.rt,VolumeContinueKey.started,VolumeContinueKey.stopped,text.started,text.stopped,Music.started,Music.stopped,AdjustContinue.started,AdjustContinue.stopped,HeadphoneCheckBeing.started,HeadphoneCheckBeing.stopped,HeadphoneContinue.started,HeadphoneContinue.stopped,HeadphoneContinueKey.keys,HeadphoneContinueKey.rt,HeadphoneContinueKey.started,HeadphoneContinueKey.stopped,WelcomeTxt1.started,WelcomeTxt1.stopped,ContinueKey1.started,ContinueKey1.stopped,ContinueResp.keys,ContinueResp.rt,ContinueResp.started,ContinueResp.stopped,Welcome2Txt.started,Welcome2Txt.stopped,Wel2ContinueKey.keys,Wel2ContinueKey.rt,Wel2ContinueKey.started,Wel2ContinueKey.stopped,Continue2.started,Continue2.stopped,InstructionTxt2.started,InstructionTxt2.stopped,WelcomeContinue2.started,WelcomeContinue2.stopped,WelcomeContinueKey2.keys,WelcomeContinueKey2.rt,WelcomeContinueKey2.started,WelcomeContinueKey2.stopped,TrialNumber.started,TrialNumber.stopped,PracticeSound.started,PracticeSound.stopped,PracticeCross.started,PracticeCross.stopped,Practice_resp.keys,Practice_resp.corr,Practice_resp.rt,Practice_resp.started,Practice_resp.stopped,PracticeMssg.started,PracticeMssg.stopped,FeedbackCross.started,FeedbackCross.stopped,Continue.started,Continue.stopped,Options.started,Options.stopped,FeedbackMssg.started,FeedbackMssg.stopped,StartTxt.started,StartTxt.stopped,StartTast.keys,StartTast.rt,StartTast.started,StartTast.stopped,ContinueStart.started,ContinueStart.stopped,no_3.started,no_3.stopped,TargetSound.started,TargetSound.stopped,Cross.started,Cross.stopped,ItemNumber.started,ItemNumber.stopped,MSTQuestion.started,MSTQuestion.stopped,MSTResp.keys,MSTResp.corr,MSTResp.rt,MSTResp.started,MSTResp.stopped,ThankyouMssg.started,ThankyouMssg.stopped,CompletionCode.started,CompletionCode.stopped,ExitTxt.started,ExitTxt.stopped,ExitKey.keys,ExitKey.rt,ExitKey.started,ExitKey.stopped,CodeTxt.started,CodeTxt.stopped,participant,session,date,expName,psychopyVersion,frameRate,
,,,,,,,,,,,,,14.129680100129917,None,14.129680100129917,None,15.350142600014806,None,space,0.31066619977355003,15.350142600014806,None,,,,,,,,,,,,,,,,,,,,,,,,,,,,,,,,,,,,,,,,,,,,,,,,,,,,,,,,,,,,,,,,,,,,,,,,,,,,,,,,,,,,,,,,,,,,,,,,001,2021_Mar_01_1800,GuessTheSound,2020.2.10,60.13098936462583,
,,,,,,,,,,,,,,,,,,,,,,,15.719760300125927,None,15.715399680170231,None,15.719760300125927,None,16.019819000037387,None,16.019819000037387,None,space,0.2987095999997109,16.019819000037387,None,,,,,,,,,,,,,,,,,,,,,,,,,,,,,,,,,,,,,,,,,,,,,,,,,,,,,,,,,,,,,,,,,,,,,,,,,,,,,,,,,,001,2021_Mar_01_1800,GuessTheSound,2020.2.10,60.13098936462583,
,,,,,,,,,,,,,,,,,,,,,,,,,,,,,,,,,,,,,16.35762650007382,None,16.35762650007382,None,space,0.30511770001612604,16.35762650007382,None,,,,,,,,,,,,,,,,,,,,,,,,,,,,,,,,,,,,,,,,,,,,,,,,,,,,,,,,,,,,,,,,,,,,,,,,,,001,2021_Mar_01_1800,GuessTheSound,2020.2.10,60.13098936462583,
,,,,,,,,,,,,,,,,,,,,,,,,,,,,,,,,,,,,,,,,,,,,,16.68702120007947,None,space,0.33273050002753735,16.68702120007947,None,,,,,,,,,,,,,,,,,,,,,,,,,,,,,,,,,,,,,,,,,,,,,,,,,,,,,,,,,,,,,,,,,,,,001,2021_Mar_01_1800,GuessTheSound,2020.2.10,60.13098936462583,
,,,,,,,,,,,,,,,,,,,,,,,,,,,,,,,,,,,,,,,,,,,,,,,,,,,16.68702120007947,None,17.054219800047576,None,17.054219800047576,None,space,0.33826859993860126,17.054219800047576,None,,,,,,,,,,,,,,,,,,,,,,,,,,,,,,,,,,,,,,,,,,,,,,,,,,,,,,,,,,001,2021_Mar_01_1800,GuessTheSound,2020.2.10,60.13098936462583,
Practice/Seagull_A.wav,2,3,NEW,Practice,0,0,0,0,,,,,,,,,,,,,,,,,,,,,,,,,,,,,,,,,,,,,,,,,,,,,,,,,,,,,17.62086999998428,None,17.615329180122355,None,17.62086999998428,None,3,1,1.2303925999440253,19.915627300040796,None,19.915627300040796,None,19.915627300040796,None,19.915627300040796,None,19.915627300040796,None,21.1840741999913,None,,,,,,,,,,,,,,,,,,,,,,,,,,,,,,,,,,,,,001,2021_Mar_01_1800,GuessTheSound,2020.2.10,60.13098936462583,
Practice/Skid_B.wav,2,3,NEW,Practice,0,1,1,1,,,,,,,,,,,,,,,,,,,,,,,,,,,,,,,,,,,,,,,,,,,,,,,,,,,,,22.213825799990445,None,22.214832980162466,None,22.213825799990445,None,3,1,0.9458403000608087,24.31492629996501,None,24.31492629996501,None,24.31492629996501,None,24.31492629996501,None,24.31492629996501,None,25.282021899940446,None,,,,,,,,,,,,,,,,,,,,,,,,,,,,,,,,,,,,,001,2021_Mar_01_1800,GuessTheSound,2020.2.10,60.13098936462583,
Practice/Seagull_A.wav,1,1,OLD,Practice,0,2,2,2,,,,,,,,,,,,,,,,,,,,,,,,,,,,,,,,,,,,,,,,,,,,,,,,,,,,,26.3016268000938,None,26.297962919948624,None,26.3016268000938,None,3,0,3.5000398999545723,28.59340910008177,None,28.59340910008177,None,28.59340910008177,None,28.59340910008177,None,28.59340910008177,None,32.124356999993324,None,,,,,,,,,,,,,,,,,,,,,,,,,,,,,,,,,,,,,001,2021_Mar_01_1800,GuessTheSound,2020.2.10,60.13098936462583,
Practice/Gargle_A.wav,2,3,NEW,Practice,0,3,3,3,,,,,,,,,,,,,,,,,,,,,,,,,,,,,,,,,,,,,,,,,,,,,,,,,,,,,33.17330000014044,35.43329770001583,33.16320058002602,None,33.17330000014044,35.43329770001583,3,1,2.6920646000653505,35.486141399946064,None,35.486141399946064,None,35.486141399946064,None,35.486141399946064,None,35.486141399946064,None,38.233833899954334,None,,,,,,,,,,,,,,,,,,,,,,,,,,,,,,,,,,,,,001,2021_Mar_01_1800,GuessTheSound,2020.2.10,60.13098936462583,
Practice/Gargle_B.wav,2,2,SIMILAR,Practice,0,4,4,4,,,,,,,,,,,,,,,,,,,,,,,,,,,,,,,,,,,,,,,,,,,,,,,,,,,,,39.265051499940455,None,39.25019832015968,None,39.265051499940455,None,3,0,1.9778330000117421,41.351952200056985,None,41.351952200056985,None,41.351952200056985,None,41.351952200056985,None,41.351952200056985,None,43.37599490000866,None,,,,,,,,,,,,,,,,,,,,,,,,,,,,,,,,,,,,,001,2021_Mar_01_1800,GuessTheSound,2020.2.10,60.13098936462583,
,,,,,,,,,,,,,,,,,,,,,,,,,,,,,,,,,,,,,,,,,,,,,,,,,,,,,,,,,,,,,,,,,,,,,,,,,,,,,,,,,,44.368023599963635,None,space,1.1542247999459505,44.368023599963635,None,,,,,,,,,,,,,,,,,,,,,,,,,,,,,,,001,2021_Mar_01_1800,GuessTheSound,2020.2.10,60.13098936462583,
Elephant_C.wav,2,3,NEW,A,,,,,0,0,0,0,,,,,,,,,,,,,,,,,,,,,,,,,,,,,,,,,,,,,,,,,,,,,,,,,,,,,,,,,,,,,,,,,,,,,,,,,,,,44.368023599963635,None,45.64778390014544,None,47.09774838013109,None,47.095782899996266,None,47.095782899996266,None,49.9649809000548,None,3,1,0.8333119000308216,49.9649809000548,None,,,,,,,,,,,,,,001,2021_Mar_01_1800,GuessTheSound,2020.2.10,60.13098936462583,
Initial/NoRepeat/Thunder_A.wav,2,3,NEW,A,,,,,0,1,1,1,,,,,,,,,,,,,,,,,,,,,,,,,,,,,,,,,,,,,,,,,,,,,,,,,,,,,,,,,,,,,,,,,,,,,,,,,,,,,,50.82120839995332,None,52.34790552002377,None,52.35491110011935,None,52.35491110011935,None,55.23190740006976,None,3,1,0.19353509997017682,55.23190740006976,None,,,,,,,,,,,,,,001,2021_Mar_01_1800,GuessTheSound,2020.2.10,60.13098936462583,
Chime_B.wav,2,3,NEW,A,,,,,0,2,2,2,,,,,,,,,,,,,,,,,,,,,,,,,,,,,,,,,,,,,,,,,,,,,,,,,,,,,,,,,,,,,,,,,,,,,,,,,,,,,,55.45188209996559,None,56.98089962000958,None,56.987999400123954,None,56.987999400123954,None,59.81498740008101,None,3,1,0.14153819996863604,59.81498740008101,None,,,,,,,,,,,,,,001,2021_Mar_01_1800,GuessTheSound,2020.2.10,60.13098936462583,
Initial/NoRepeat/Toilet_B.wav,2,3,NEW,A,,,,,0,3,3,3,,,,,,,,,,,,,,,,,,,,,,,,,,,,,,,,,,,,,,,,,,,,,,,,,,,,,,,,,,,,,,,,,,,,,,,,,,,,,,59.985281200148165,None,61.514405219955364,None,61.51094110007398,None,61.51094110007398,None,64.38155860011466,None,3,1,0.49123829999007285,64.38155860011466,None,,,,,,,,,,,,,,001,2021_Mar_01_1800,GuessTheSound,2020.2.10,60.13098936462583,
Test/Foils/Typing.wav,2,3,NEW,A,,,,,0,4,4,4,,,,,,,,,,,,,,,,,,,,,,,,,,,,,,,,,,,,,,,,,,,,,,,,,,,,,,,,,,,,,,,,,,,,,,,,,,,,,,64.89912740001455,None,66.43072802005335,None,66.43540860014036,None,66.43540860014036,None,69.29822989995591,None,3,1,0.39878969988785684,69.29822989995591,None,,,,,,,,,,,,,,001,2021_Mar_01_1800,GuessTheSound,2020.2.10,60.13098936462583,
Pour_E.wav,2,3,NEW,A,,,,,0,5,5,5,,,,,,,,,,,,,,,,,,,,,,,,,,,,,,,,,,,,,,,,,,,,,,,,,,,,,,,,,,,,,,,,,,,,,,,,,,,,,,69.71704569994472,None,71.28094844012521,None,71.28831319999881,None,71.28831319999881,None,74.16458250000142,None,3,1,0.3543785000219941,74.16458250000142,None,,,,,,,,,,,,,,001,2021_Mar_01_1800,GuessTheSound,2020.2.10,60.13098936462583,
Initial/NoRepeat/Sleighbells_B.wav,2,3,NEW,A,,,,,0,6,6,6,,,,,,,,,,,,,,,,,,,,,,,,,,,,,,,,,,,,,,,,,,,,,,,,,,,,,,,,,,,,,,,,,,,,,,,,,,,,,,74.54870510008186,None,76.08342312010936,None,76.0899126001168,None,76.0899126001168,None,78.51477420004085,None,3,1,0.259031199850142,78.51477420004085,None,,,,,,,,,,,,,,001,2021_Mar_01_1800,GuessTheSound,2020.2.10,60.13098936462583,
Initial/Repeat/Buzz.wav,2,3,NEW,A,,,,,0,7,7,7,,,,,,,,,,,,,,,,,,,,,,,,,,,,,,,,,,,,,,,,,,,,,,,,,,,,,,,,,,,,,,,,,,,,,,,,,,,,,,78.79933900013566,None,80.3306220200844,None,80.32385780010372,None,80.32385780010372,None,82.63166390010156,None,3,1,0.25376460002735257,82.63166390010156,None,,,,,,,,,,,,,,001,2021_Mar_01_1800,GuessTheSound,2020.2.10,60.13098936462583,
Baby_F.wav,2,3,NEW,A,,,,,0,8,8,8,,,,,,,,,,,,,,,,,,,,,,,,,,,,,,,,,,,,,,,,,,,,,,,,,,,,,,,,,,,,,,,,,,,,,,,,,,,,,,82.91633370006457,None,84.44748242003843,None,84.4577240999788,None,84.4577240999788,None,86.73159250011668,None,3,1,0.3483736999332905,86.73159250011668,None,,,,,,,,,,,,,,001,2021_Mar_01_1800,GuessTheSound,2020.2.10,60.13098936462583,
Initial/NoRepeat/Thunder_A.wav,1,1,OLD,A,,,,,0,9,9,9,,,,,,,,,,,,,,,,,,,,,,,,,,,,,,,,,,,,,,,,,,,,,,,,,,,,,,,,,,,,,,,,,,,,,,,,,,,,,,87.0979709001258,None,88.61385332015342,None,88.61306370003149,None,88.61306370003149,None,91.48154680011794,None,1,1,0.36210240004584193,91.48154680011794,None,,,,,,,,,,,,,,001,2021_Mar_01_1800,GuessTheSound,2020.2.10,60.13098936462583,
Initial/NoRepeat/Mosquito_B.wav,2,3,NEW,A,,,,,0,10,10,10,,,,,,,,,,,,,,,,,,,,,,,,,,,,,,,,,,,,,,,,,,,,,,,,,,,,,,,,,,,,,,,,,,,,,,,,,,,,,,91.86388349998742,None,93.38042931994423,None,93.3796602000948,None,93.3796602000948,None,95.53139610006474,None,3,1,0.612544999923557,95.53139610006474,None,,,,,,,,,,,,,,001,2021_Mar_01_1800,GuessTheSound,2020.2.10,60.13098936462583,
Test/Foils/DialTone.wav,2,3,NEW,A,,,,,0,11,11,11,,,,,,,,,,,,,,,,,,,,,,,,,,,,,,,,,,,,,,,,,,,,,,,,,,,,,,,,,,,,,,,,,,,,,,,,,,,,,,96.16695660003461,None,97.69724111994728,None,97.70297360001132,None,97.70297360001132,None,100.21463750000112,None,3,1,1.781144900014624,100.21463750000112,None,,,,,,,,,,,,,,001,2021_Mar_01_1800,GuessTheSound,2020.2.10,60.13098936462583,
Elephant_D.wav,2,2,SIMILAR,A,,,,,0,12,12,12,,,,,,,,,,,,,,,,,,,,,,,,,,,,,,,,,,,,,,,,,,,,,,,,,,,,,,,,,,,,,,,,,,,,,,,,,,,,,,102.02063559996895,None,103.56686198010574,None,103.56543620000593,None,103.56543620000593,None,106.43149899994023,None,2,1,0.5157516000326723,106.43149899994023,None,,,,,,,,,,,,,,001,2021_Mar_01_1800,GuessTheSound,2020.2.10,60.13098936462583,
Initial/Doubled/Writing_A.wav,2,3,NEW,A,,,,,0,13,13,13,,,,,,,,,,,,,,,,,,,,,,,,,,,,,,,,,,,,,,,,,,,,,,,,,,,,,,,,,,,,,,,,,,,,,,,,,,,,,,106.96597540006042,None,108.49726212015375,None,108.49378419993445,None,108.49378419993445,None,111.197767799953,None,3,1,0.5382694997824728,111.197767799953,None,,,,,,,,,,,,,,001,2021_Mar_01_1800,GuessTheSound,2020.2.10,60.13098936462583,
Faucet_D.wav,2,3,NEW,A,,,,,0,14,14,14,,,,,,,,,,,,,,,,,,,,,,,,,,,,,,,,,,,,,,,,,,,,,,,,,,,,,,,,,,,,,,,,,,,,,,,,,,,,,,111.76655780011788,None,113.31402088000904,None,113.32102179992944,None,113.32102179992944,None,115.79773310013115,None,3,1,0.4510023999027908,115.79773310013115,None,,,,,,,,,,,,,,001,2021_Mar_01_1800,GuessTheSound,2020.2.10,60.13098936462583,
Test/Foils/Typing.wav,1,1,OLD,A,,,,,0,15,15,15,,,,,,,,,,,,,,,,,,,,,,,,,,,,,,,,,,,,,,,,,,,,,,,,,,,,,,,,,,,,,,,,,,,,,,,,,,,,,,116.26867210003547,None,117.78067765997257,None,117.79010430001654,None,117.79010430001654,None,120.64769130013883,None,1,1,0.12398789986036718,120.64769130013883,None,,,,,,,,,,,,,,001,2021_Mar_01_1800,GuessTheSound,2020.2.10,60.13098936462583,
Initial/NoRepeat/Sleighbells_B.wav,1,1,OLD,A,,,,,0,16,16,16,,,,,,,,,,,,,,,,,,,,,,,,,,,,,,,,,,,,,,,,,,,,,,,,,,,,,,,,,,,,,,,,,,,,,,,,,,,,,,120.80103690014221,None,122.31330065994989,None,122.32069319998845,None,122.32069319998845,None,124.74765660008416,None,1,1,0.12800020002759993,124.74765660008416,None,,,,,,,,,,,,,,001,2021_Mar_01_1800,GuessTheSound,2020.2.10,60.13098936462583,
Test/Foils/Wind_B.wav,2,3,NEW,A,,,,,0,17,17,17,,,,,,,,,,,,,,,,,,,,,,,,,,,,,,,,,,,,,,,,,,,,,,,,,,,,,,,,,,,,,,,,,,,,,,,,,,,,,,124.89856020011939,None,126.43002452016808,None,126.43294299999252,None,126.43294299999252,None,129.1644657999277,None,3,1,0.3936402997933328,129.1644657999277,None,,,,,,,,,,,,,,001,2021_Mar_01_1800,GuessTheSound,2020.2.10,60.13098936462583,
Initial/NoRepeat/Toilet_B.wav,1,1,OLD,A,,,,,0,18,18,18,,,,,,,,,,,,,,,,,,,,,,,,,,,,,,,,,,,,,,,,,,,,,,,,,,,,,,,,,,,,,,,,,,,,,,,,,,,,,,129.581573799951,None,131.09698355996517,None,131.10562389995903,None,131.10562389995903,None,133.98114589997567,None,3,0,0.2367094000801444,133.98114589997567,None,,,,,,,,,,,,,,001,2021_Mar_01_1800,GuessTheSound,2020.2.10,60.13098936462583,
Pour_C.wav,2,2,SIMILAR,A,,,,,0,19,19,19,,,,,,,,,,,,,,,,,,,,,,,,,,,,,,,,,,,,,,,,,,,,,,,,,,,,,,,,,,,,,,,,,,,,,,,,,,,,,,134.24961520009674,None,135.78009241996335,None,135.789408700075,None,135.789408700075,None,138.6644172000233,None,2,1,0.6731085998471826,138.6644172000233,None,,,,,,,,,,,,,,001,2021_Mar_01_1800,GuessTheSound,2020.2.10,60.13098936462583,
Chime_A.wav,2,2,SIMILAR,A,,,,,0,20,20,20,,,,,,,,,,,,,,,,,,,,,,,,,,,,,,,,,,,,,,,,,,,,,,,,,,,,,,,,,,,,,,,,,,,,,,,,,,,,,,139.36345840012655,None,140.87996012009683,None,140.89035080000758,None,140.89035080000758,None,143.71364570013247,None,1,0,0.7548591000959277,143.71364570013247,None,,,,,,,,,,,,,,001,2021_Mar_01_1800,GuessTheSound,2020.2.10,60.13098936462583,
Initial/Repeat/Buzz.wav,1,1,OLD,A,,,,,0,21,21,21,,,,,,,,,,,,,,,,,,,,,,,,,,,,,,,,,,,,,,,,,,,,,,,,,,,,,,,,,,,,,,,,,,,,,,,,,,,,,,144.4982223000843,None,146.0131895601051,None,146.01888330001384,None,146.01888330001384,None,148.330888699973,None,1,1,3.331917000003159,148.330888699973,None,,,,,,,,,,,,,,001,2021_Mar_01_1800,GuessTheSound,2020.2.10,60.13098936462583,
Writing_C.wav,2,2,SIMILAR,A,,,,,0,22,22,22,,,,,,,,,,,,,,,,,,,,,,,,,,,,,,,,,,,,,,,,,,,,,,,,,,,,,,,,,,,,,,,,,,,,,,,,,,,,,,151.68425390007906,None,153.2120434200857,None,153.21716270013712,None,153.21716270013712,None,155.92949960008264,None,2,1,0.6335169000085443,155.92949960008264,None,,,,,,,,,,,,,,001,2021_Mar_01_1800,GuessTheSound,2020.2.10,60.13098936462583,
Initial/NoRepeat/Mosquito_B.wav,1,1,OLD,A,,,,,0,23,23,23,,,,,,,,,,,,,,,,,,,,,,,,,,,,,,,,,,,,,,,,,,,,,,,,,,,,,,,,,,,,,,,,,,,,,,,,,,,,,,156.57909280015156,None,158.07957016008442,None,158.08920889999717,None,158.08920889999717,None,160.2305054999888,None,3,0,0.3950912000145763,160.2305054999888,None,,,,,,,,,,,,,,001,2021_Mar_01_1800,GuessTheSound,2020.2.10,60.13098936462583,
Cough_A.wav,2,3,NEW,A,,,,,0,24,24,24,,,,,,,,,,,,,,,,,,,,,,,,,,,,,,,,,,,,,,,,,,,,,,,,,,,,,,,,,,,,,,,,,,,,,,,,,,,,,,160.64671140001155,None,162.16313672009858,None,162.16680260002613,None,162.16680260002613,None,163.88076590001583,None,3,1,0.41874870005995035,163.88076590001583,None,,,,,,,,,,,,,,001,2021_Mar_01_1800,GuessTheSound,2020.2.10,60.13098936462583,
Test/Foils/DialTone.wav,1,1,OLD,A,,,,,0,25,25,25,,,,,,,,,,,,,,,,,,,,,,,,,,,,,,,,,,,,,,,,,,,,,,,,,,,,,,,,,,,,,,,,,,,,,,,,,,,,,,164.33564430009574,None,165.84643446009142,None,165.85493259993382,None,165.85493259993382,None,168.36415460007265,None,3,0,0.2937827999703586,168.36415460007265,None,,,,,,,,,,,,,,001,2021_Mar_01_1800,GuessTheSound,2020.2.10,60.13098936462583,
Initial/NoRepeat/Puff_A.wav,2,3,NEW,A,,,,,0,26,26,26,,,,,,,,,,,,,,,,,,,,,,,,,,,,,,,,,,,,,,,,,,,,,,,,,,,,,,,,,,,,,,,,,,,,,,,,,,,,,,168.68536689993925,None,170.2132894200273,None,170.2079851999879,None,170.2079851999879,None,171.89713350008242,None,3,1,0.40386529988609254,171.89713350008242,None,,,,,,,,,,,,,,001,2021_Mar_01_1800,GuessTheSound,2020.2.10,60.13098936462583,
Test/Foils/Heartbeat.wav,2,3,NEW,A,,,,,0,27,27,27,,,,,,,,,,,,,,,,,,,,,,,,,,,,,,,,,,,,,,,,,,,,,,,,,,,,,,,,,,,,,,,,,,,,,,,,,,,,,,172.33286600001156,None,173.86343431998978,None,173.86718970001675,None,173.86718970001675,None,176.28057719999924,None,3,1,0.2692585000768304,176.28057719999924,None,,,,,,,,,,,,,,001,2021_Mar_01_1800,GuessTheSound,2020.2.10,60.13098936462583,
Initial/Repeat/IceDrop.wav,2,3,NEW,A,,,,,0,28,28,28,,,,,,,,,,,,,,,,,,,,,,,,,,,,,,,,,,,,,,,,,,,,,,,,,,,,,,,,,,,,,,,,,,,,,,,,,,,,,,176.58114310004748,None,178.12987478005235,None,178.12174859992228,None,178.12174859992228,None,180.88047630013898,None,3,1,0.3708838999737054,180.88047630013898,None,,,,,,,,,,,,,,001,2021_Mar_01_1800,GuessTheSound,2020.2.10,60.13098936462583,
Bird_D.wav,2,3,NEW,A,,,,,0,29,29,29,,,,,,,,,,,,,,,,,,,,,,,,,,,,,,,,,,,,,,,,,,,,,,,,,,,,,,,,,,,,,,,,,,,,,,,,,,,,,,181.28209260012954,None,182.81295892004857,None,182.80948649998754,None,182.80948649998754,None,184.14707650011405,None,3,1,0.3198246001265943,184.14707650011405,None,,,,,,,,,,,,,,001,2021_Mar_01_1800,GuessTheSound,2020.2.10,60.13098936462583,
Baby_E.wav,2,2,SIMILAR,A,,,,,0,30,30,30,,,,,,,,,,,,,,,,,,,,,,,,,,,,,,,,,,,,,,,,,,,,,,,,,,,,,,,,,,,,,,,,,,,,,,,,,,,,,,184.49753089994192,None,186.02952172015796,None,186.02745359996334,None,186.02745359996334,None,188.29689260013402,None,2,1,1.4665634999983013,188.29689260013402,None,,,,,,,,,,,,,,001,2021_Mar_01_1800,GuessTheSound,2020.2.10,60.13098936462583,
Faucet_C.wav,2,2,SIMILAR,A,,,,,0,31,31,31,,,,,,,,,,,,,,,,,,,,,,,,,,,,,,,,,,,,,,,,,,,,,,,,,,,,,,,,,,,,,,,,,,,,,,,,,,,,,,189.78455590014346,None,191.31280142012986,None,191.31885170005262,None,191.31885170005262,None,193.79707390000112,None,2,1,0.7424437999725342,193.79707390000112,None,,,,,,,,,,,,,,001,2021_Mar_01_1800,GuessTheSound,2020.2.10,60.13098936462583,
Duck_A.wav,2,3,NEW,A,,,,,0,32,32,32,,,,,,,,,,,,,,,,,,,,,,,,,,,,,,,,,,,,,,,,,,,,,,,,,,,,,,,,,,,,,,,,,,,,,,,,,,,,,,194.564137800131,None,196.0961550200824,None,196.09858190012164,None,196.09858190012164,None,198.1970266001299,None,3,1,0.4457979998551309,198.1970266001299,None,,,,,,,,,,,,,,001,2021_Mar_01_1800,GuessTheSound,2020.2.10,60.13098936462583,
Laugh_C.wav,2,3,NEW,A,,,,,0,33,33,33,,,,,,,,,,,,,,,,,,,,,,,,,,,,,,,,,,,,,,,,,,,,,,,,,,,,,,,,,,,,,,,,,,,,,,,,,,,,,,198.66363220009953,None,200.1794085201342,None,200.18806660012342,None,200.18806660012342,None,203.04674779996276,None,3,1,0.3780441000126302,203.04674779996276,None,,,,,,,,,,,,,,001,2021_Mar_01_1800,GuessTheSound,2020.2.10,60.13098936462583,
Test/Foils/Wind_B.wav,1,1,OLD,A,,,,,0,34,34,34,,,,,,,,,,,,,,,,,,,,,,,,,,,,,,,,,,,,,,,,,,,,,,,,,,,,,,,,,,,,,,,,,,,,,,,,,,,,,,203.44829989993013,None,204.96276045993437,None,204.9715036000125,None,204.9715036000125,None,207.7137434000615,None,3,0,0.3091890001669526,207.7137434000615,None,,,,,,,,,,,,,,001,2021_Mar_01_1800,GuessTheSound,2020.2.10,60.13098936462583,
Initial/Doubled/Chicken_A.wav,2,3,NEW,A,,,,,0,35,35,35,,,,,,,,,,,,,,,,,,,,,,,,,,,,,,,,,,,,,,,,,,,,,,,,,,,,,,,,,,,,,,,,,,,,,,,,,,,,,,208.04809950012714,None,209.56264655997512,None,209.57120130001567,None,209.57120130001567,None,211.246898900019,None,3,1,0.44388090004213154,211.246898900019,None,,,,,,,,,,,,,,001,2021_Mar_01_1800,GuessTheSound,2020.2.10,60.13098936462583,
Test/Lures/Guitar_B.wav,2,3,NEW,A,,,,,0,36,36,36,,,,,,,,,,,,,,,,,,,,,,,,,,,,,,,,,,,,,,,,,,,,,,,,,,,,,,,,,,,,,,,,,,,,,,,,,,,,,,211.7164837999735,None,213.24492072002033,None,213.2483787999954,None,213.2483787999954,None,215.57894550007768,None,3,1,0.26157380011864007,215.57894550007768,None,,,,,,,,,,,,,,001,2021_Mar_01_1800,GuessTheSound,2020.2.10,60.13098936462583,
Initial/Repeat/Cello.wav,2,3,NEW,A,,,,,0,37,37,37,,,,,,,,,,,,,,,,,,,,,,,,,,,,,,,,,,,,,,,,,,,,,,,,,,,,,,,,,,,,,,,,,,,,,,,,,,,,,,215.86145670013502,None,217.3785879201256,None,217.38268740009516,None,217.38268740009516,None,220.2468084001448,None,3,1,0.27843639999628067,220.2468084001448,None,,,,,,,,,,,,,,001,2021_Mar_01_1800,GuessTheSound,2020.2.10,60.13098936462583,
Test/Foils/Heartbeat.wav,1,1,OLD,A,,,,,0,38,38,38,,,,,,,,,,,,,,,,,,,,,,,,,,,,,,,,,,,,,,,,,,,,,,,,,,,,,,,,,,,,,,,,,,,,,,,,,,,,,,220.54674519994296,None,222.06270122006538,None,222.05599060002714,None,222.05599060002714,None,224.46354950009845,None,1,1,0.272956500062719,224.46354950009845,None,,,,,,,,,,,,,,001,2021_Mar_01_1800,GuessTheSound,2020.2.10,60.13098936462583,
Initial/Repeat/Airplane_B.wav,2,3,NEW,A,,,,,0,39,39,39,,,,,,,,,,,,,,,,,,,,,,,,,,,,,,,,,,,,,,,,,,,,,,,,,,,,,,,,,,,,,,,,,,,,,,,,,,,,,,224.7647897999268,None,226.32936074007304,None,226.32443320006132,None,226.32443320006132,None,228.93012819997966,None,3,1,0.3362664000596851,228.93012819997966,None,,,,,,,,,,,,,,001,2021_Mar_01_1800,GuessTheSound,2020.2.10,60.13098936462583,
Cough_E.wav,2,2,SIMILAR,A,,,,,0,40,40,40,,,,,,,,,,,,,,,,,,,,,,,,,,,,,,,,,,,,,,,,,,,,,,,,,,,,,,,,,,,,,,,,,,,,,,,,,,,,,,229.30280119995587,None,230.82916641994382,None,230.8292042000685,None,230.8292042000685,None,232.53013209998608,None,3,0,0.2785573999863118,232.53013209998608,None,,,,,,,,,,,,,,001,2021_Mar_01_1800,GuessTheSound,2020.2.10,60.13098936462583,
Initial/Repeat/Trumpet_B.wav,2,3,NEW,A,,,,,0,41,41,41,,,,,,,,,,,,,,,,,,,,,,,,,,,,,,,,,,,,,,,,,,,,,,,,,,,,,,,,,,,,,,,,,,,,,,,,,,,,,,232.82936000009067,None,234.34614682001995,None,234.34176010009833,None,234.34176010009833,None,236.64635910000652,None,3,1,0.2602050001733005,236.64635910000652,None,,,,,,,,,,,,,,001,2021_Mar_01_1800,GuessTheSound,2020.2.10,60.13098936462583,
Initial/Repeat/IceDrop.wav,1,1,OLD,A,,,,,0,42,42,42,,,,,,,,,,,,,,,,,,,,,,,,,,,,,,,,,,,,,,,,,,,,,,,,,,,,,,,,,,,,,,,,,,,,,,,,,,,,,,236.93379019992426,None,238.44571076014546,None,238.45450769993477,None,238.45450769993477,None,241.2132993999403,None,1,1,0.25446010008454323,241.2132993999403,None,,,,,,,,,,,,,,001,2021_Mar_01_1800,GuessTheSound,2020.2.10,60.13098936462583,
Initial/Repeat/Sneeze_B.wav,2,3,NEW,A,,,,,0,43,43,43,,,,,,,,,,,,,,,,,,,,,,,,,,,,,,,,,,,,,,,,,,,,,,,,,,,,,,,,,,,,,,,,,,,,,,,,,,,,,,241.49977060011588,None,243.028973620059,None,243.02817220008,None,243.02817220008,None,244.2634036000818,None,1,0,0.06307959998957813,244.2634036000818,None,,,,,,,,,,,,,,001,2021_Mar_01_1800,GuessTheSound,2020.2.10,60.13098936462583,
Initial/NoRepeat/Puff_A.wav,1,1,OLD,A,,,,,0,44,44,44,,,,,,,,,,,,,,,,,,,,,,,,,,,,,,,,,,,,,,,,,,,,,,,,,,,,,,,,,,,,,,,,,,,,,,,,,,,,,,244.34695139992982,None,245.86213745998685,None,245.8708409999963,None,245.8708409999963,None,247.56326050008647,None,1,1,0.19317220011726022,247.56326050008647,None,,,,,,,,,,,,,,001,2021_Mar_01_1800,GuessTheSound,2020.2.10,60.13098936462583,
Chick_A.wav,2,2,SIMILAR,A,,,,,0,45,45,45,,,,,,,,,,,,,,,,,,,,,,,,,,,,,,,,,,,,,,,,,,,,,,,,,,,,,,,,,,,,,,,,,,,,,,,,,,,,,,247.78123820014298,None,249.31233731997202,None,249.3178475999739,None,249.3178475999739,None,251.02907510008663,None,3,0,0.28722530021332204,251.02907510008663,None,,,,,,,,,,,,,,001,2021_Mar_01_1800,GuessTheSound,2020.2.10,60.13098936462583,
Snore_D.wav,2,3,NEW,A,,,,,0,46,46,46,,,,,,,,,,,,,,,,,,,,,,,,,,,,,,,,,,,,,,,,,,,,,,,,,,,,,,,,,,,,,,,,,,,,,,,,,,,,,,251.34574090014212,None,252.8626312200446,None,252.87022019992582,None,252.87022019992582,None,255.7462257000152,None,3,1,0.34551819995976985,255.7462257000152,None,,,,,,,,,,,,,,001,2021_Mar_01_1800,GuessTheSound,2020.2.10,60.13098936462583,
Test/Lures/Guitar_B.wav,1,1,OLD,A,,,,,0,47,47,47,,,,,,,,,,,,,,,,,,,,,,,,,,,,,,,,,,,,,,,,,,,,,,,,,,,,,,,,,,,,,,,,,,,,,,,,,,,,,,256.1126256000716,None,257.6288447199855,None,257.6231756999623,None,257.6231756999623,None,259.9462315000128,None,3,0,0.18617130001075566,259.9462315000128,None,,,,,,,,,,,,,,001,2021_Mar_01_1800,GuessTheSound,2020.2.10,60.13098936462583,
Initial/Doubled/Cat_A.wav,2,3,NEW,A,,,,,0,48,48,48,,,,,,,,,,,,,,,,,,,,,,,,,,,,,,,,,,,,,,,,,,,,,,,,,,,,,,,,,,,,,,,,,,,,,,,,,,,,,,260.162705300143,None,261.6787368200254,None,261.6831557000987,None,261.6831557000987,None,263.11304700002074,None,3,1,0.2709703000728041,263.11304700002074,None,,,,,,,,,,,,,,001,2021_Mar_01_1800,GuessTheSound,2020.2.10,60.13098936462583,
Whistle_A.wav,2,3,NEW,A,,,,,0,49,49,49,,,,,,,,,,,,,,,,,,,,,,,,,,,,,,,,,,,,,,,,,,,,,,,,,,,,,,,,,,,,,,,,,,,,,,,,,,,,,,263.4124457000289,None,264.9286584201269,None,264.9238754999824,None,264.9238754999824,None,266.4131714999676,None,3,1,0.7016201000660658,266.4131714999676,None,,,,,,,,,,,,,,001,2021_Mar_01_1800,GuessTheSound,2020.2.10,60.13098936462583,
Duck_B.wav,2,2,SIMILAR,A,,,,,0,50,50,50,,,,,,,,,,,,,,,,,,,,,,,,,,,,,,,,,,,,,,,,,,,,,,,,,,,,,,,,,,,,,,,,,,,,,,,,,,,,,,267.13034490006976,None,268.6622140199412,None,268.6630168999545,None,268.6630168999545,None,270.37942799995653,None,2,1,1.6237439000979066,270.37942799995653,None,,,,,,,,,,,,,,001,2021_Mar_01_1800,GuessTheSound,2020.2.10,60.13098936462583,
Laugh_F.wav,2,2,SIMILAR,A,,,,,0,51,51,51,,,,,,,,,,,,,,,,,,,,,,,,,,,,,,,,,,,,,,,,,,,,,,,,,,,,,,,,,,,,,,,,,,,,,,,,,,,,,,272.0294858000707,None,273.56232328012123,None,273.55546199996024,None,273.55546199996024,None,276.4296166000422,None,2,1,0.562900000018999,276.4296166000422,None,,,,,,,,,,,,,,001,2021_Mar_01_1800,GuessTheSound,2020.2.10,60.13098936462583,
Initial/Doubled/Chicken_A.wav,1,1,OLD,A,,,,,0,52,52,52,,,,,,,,,,,,,,,,,,,,,,,,,,,,,,,,,,,,,,,,,,,,,,,,,,,,,,,,,,,,,,,,,,,,,,,,,,,,,,277.01213079993613,None,278.51182466007305,None,278.52105859993026,None,278.52105859993026,None,280.1960192001425,None,3,0,0.5486721999477595,280.1960192001425,None,,,,,,,,,,,,,,001,2021_Mar_01_1800,GuessTheSound,2020.2.10,60.13098936462583,
Initial/Repeat/Cello.wav,1,1,OLD,A,,,,,0,53,53,53,,,,,,,,,,,,,,,,,,,,,,,,,,,,,,,,,,,,,,,,,,,,,,,,,,,,,,,,,,,,,,,,,,,,,,,,,,,,,,280.7635075999424,None,282.27887125995477,None,282.2900823999662,None,282.2900823999662,None,285.1636286000721,None,1,1,0.4854027999099344,285.1636286000721,None,,,,,,,,,,,,,,001,2021_Mar_01_1800,GuessTheSound,2020.2.10,60.13098936462583,
Test/Foils/Slurp.wav,2,3,NEW,A,,,,,0,54,54,54,,,,,,,,,,,,,,,,,,,,,,,,,,,,,,,,,,,,,,,,,,,,,,,,,,,,,,,,,,,,,,,,,,,,,,,,,,,,,,285.6866039999295,None,287.21452602013017,None,287.21023750002496,None,287.21023750002496,None,289.5793840000406,None,3,1,0.38788639986887574,289.5793840000406,None,,,,,,,,,,,,,,001,2021_Mar_01_1800,GuessTheSound,2020.2.10,60.13098936462583,
Chomp_F.wav,2,3,NEW,A,,,,,0,55,55,55,,,,,,,,,,,,,,,,,,,,,,,,,,,,,,,,,,,,,,,,,,,,,,,,,,,,,,,,,,,,,,,,,,,,,,,,,,,,,,290.0031159000937,None,291.52862621997485,None,291.5237201000564,None,291.5237201000564,None,293.8794654000085,None,3,1,0.6370868000667542,293.8794654000085,None,,,,,,,,,,,,,,001,2021_Mar_01_1800,GuessTheSound,2020.2.10,60.13098936462583,
Initial/Repeat/Airplane_B.wav,1,1,OLD,A,,,,,0,56,56,56,,,,,,,,,,,,,,,,,,,,,,,,,,,,,,,,,,,,,,,,,,,,,,,,,,,,,,,,,,,,,,,,,,,,,,,,,,,,,,294.54711859999225,None,296.061838160106,None,296.07277780002914,None,296.07277780002914,None,298.67935930006206,None,3,0,0.5304971998557448,298.67935930006206,None,,,,,,,,,,,,,,001,2021_Mar_01_1800,GuessTheSound,2020.2.10,60.13098936462583,
Initial/Repeat/ManWhistle.wav,2,3,NEW,A,,,,,0,57,57,57,,,,,,,,,,,,,,,,,,,,,,,,,,,,,,,,,,,,,,,,,,,,,,,,,,,,,,,,,,,,,,,,,,,,,,,,,,,,,,299.2288021000568,None,300.7452537199948,None,300.7483353000134,None,300.7483353000134,None,302.9625419001095,None,3,1,0.3953396000433713,302.9625419001095,None,,,,,,,,,,,,,,001,2021_Mar_01_1800,GuessTheSound,2020.2.10,60.13098936462583,
Initial/Repeat/Trumpet_B.wav,1,1,OLD,A,,,,,0,58,58,58,,,,,,,,,,,,,,,,,,,,,,,,,,,,,,,,,,,,,,,,,,,,,,,,,,,,,,,,,,,,,,,,,,,,,,,,,,,,,,303.37847510003485,None,304.8787920601433,None,304.88770930003375,None,304.88770930003375,None,307.1792614001315,None,3,0,0.33575650001876056,307.1792614001315,None,,,,,,,,,,,,,,001,2021_Mar_01_1800,GuessTheSound,2020.2.10,60.13098936462583,
Initial/Repeat/Cup.wav,2,3,NEW,A,,,,,0,59,59,59,,,,,,,,,,,,,,,,,,,,,,,,,,,,,,,,,,,,,,,,,,,,,,,,,,,,,,,,,,,,,,,,,,,,,,,,,,,,,,307.52970660012215,None,309.0791853401344,None,309.0745668001473,None,309.0745668001473,None,310.41251570009626,None,3,1,0.3211298000533134,310.41251570009626,None,,,,,,,,,,,,,,001,2021_Mar_01_1800,GuessTheSound,2020.2.10,60.13098936462583,
Snore_E.wav,2,2,SIMILAR,A,,,,,0,60,60,60,,,,,,,,,,,,,,,,,,,,,,,,,,,,,,,,,,,,,,,,,,,,,,,,,,,,,,,,,,,,,,,,,,,,,,,,,,,,,,310.7640102999285,None,312.2951098199934,None,312.29499080008827,None,312.29499080008827,None,315.1626134000253,None,2,1,1.3675502999685705,315.1626134000253,None,,,,,,,,,,,,,,001,2021_Mar_01_1800,GuessTheSound,2020.2.10,60.13098936462583,
Test/Foils/Airhorn.wav,2,3,NEW,A,,,,,0,61,61,61,,,,,,,,,,,,,,,,,,,,,,,,,,,,,,,,,,,,,,,,,,,,,,,,,,,,,,,,,,,,,,,,,,,,,,,,,,,,,,316.54638279997744,None,318.078312720079,None,318.0854094000533,None,318.0854094000533,None,320.64579400001094,None,3,1,0.4205509000457823,320.64579400001094,None,,,,,,,,,,,,,,001,2021_Mar_01_1800,GuessTheSound,2020.2.10,60.13098936462583,
Whistle_C.wav,2,2,SIMILAR,A,,,,,0,62,62,62,,,,,,,,,,,,,,,,,,,,,,,,,,,,,,,,,,,,,,,,,,,,,,,,,,,,,,,,,,,,,,,,,,,,,,,,,,,,,,321.09918719995767,None,322.62831592014993,None,322.63006110000424,None,322.63006110000424,None,324.4290348000359,None,3,0,0.48663960001431406,324.4290348000359,None,,,,,,,,,,,,,,001,2021_Mar_01_1800,GuessTheSound,2020.2.10,60.13098936462583,
Phone_D.wav,2,3,NEW,A,,,,,0,63,63,63,,,,,,,,,,,,,,,,,,,,,,,,,,,,,,,,,,,,,,,,,,,,,,,,,,,,,,,,,,,,,,,,,,,,,,,,,,,,,,324.94748209998943,None,326.47805532012137,None,326.4747957000509,None,326.4747957000509,None,329.028909600107,None,3,1,0.4900102000683546,329.028909600107,None,,,,,,,,,,,,,,001,2021_Mar_01_1800,GuessTheSound,2020.2.10,60.13098936462583,
Initial/Repeat/Sneeze_B.wav,1,1,OLD,A,,,,,0,64,64,64,,,,,,,,,,,,,,,,,,,,,,,,,,,,,,,,,,,,,,,,,,,,,,,,,,,,,,,,,,,,,,,,,,,,,,,,,,,,,,329.54818839998916,None,331.0614011600381,None,331.06581600010395,None,331.06581600010395,None,332.29567570006475,None,1,1,0.45491439988836646,332.29567570006475,None,,,,,,,,,,,,,,001,2021_Mar_01_1800,GuessTheSound,2020.2.10,60.13098936462583,
Initial/Doubled/Cat_A.wav,1,1,OLD,A,,,,,0,65,65,65,,,,,,,,,,,,,,,,,,,,,,,,,,,,,,,,,,,,,,,,,,,,,,,,,,,,,,,,,,,,,,,,,,,,,,,,,,,,,,332.78284440003335,None,334.29479516001885,None,334.3027427000925,None,334.3027427000925,None,335.7289196001366,None,3,0,0.2867060999851674,335.7289196001366,None,,,,,,,,,,,,,,001,2021_Mar_01_1800,GuessTheSound,2020.2.10,60.13098936462583,
Initial/Repeat/Bagpipe.wav,2,3,NEW,A,,,,,0,66,66,66,,,,,,,,,,,,,,,,,,,,,,,,,,,,,,,,,,,,,,,,,,,,,,,,,,,,,,,,,,,,,,,,,,,,,,,,,,,,,,336.0531918001361,None,337.57808411996814,None,337.5847233000677,None,337.5847233000677,None,339.9625991000794,None,3,1,0.45116810011677444,339.9625991000794,None,,,,,,,,,,,,,,001,2021_Mar_01_1800,GuessTheSound,2020.2.10,60.13098936462583,
Test/Foils/Slurp.wav,1,1,OLD,A,,,,,0,67,67,67,,,,,,,,,,,,,,,,,,,,,,,,,,,,,,,,,,,,,,,,,,,,,,,,,,,,,,,,,,,,,,,,,,,,,,,,,,,,,,340.429474900011,None,341.9446894599358,None,341.9537957999855,None,341.9537957999855,None,344.32887520012446,None,1,1,0.8434296001214534,344.32887520012446,None,,,,,,,,,,,,,,001,2021_Mar_01_1800,GuessTheSound,2020.2.10,60.13098936462583,
Test/Foils/Bowlingpins.wav,2,3,NEW,A,,,,,0,68,68,68,,,,,,,,,,,,,,,,,,,,,,,,,,,,,,,,,,,,,,,,,,,,,,,,,,,,,,,,,,,,,,,,,,,,,,,,,,,,,,345.19470340013504,None,346.71133472016083,None,346.72034749994054,None,346.72034749994054,None,349.16236150008626,None,3,1,0.07875999994575977,349.16236150008626,None,,,,,,,,,,,,,,001,2021_Mar_01_1800,GuessTheSound,2020.2.10,60.13098936462583,
Initial/NoRepeat/Cow.wav,2,3,NEW,A,,,,,0,69,69,69,,,,,,,,,,,,,,,,,,,,,,,,,,,,,,,,,,,,,,,,,,,,,,,,,,,,,,,,,,,,,,,,,,,,,,,,,,,,,,349.2618937001098,None,350.7777493201662,None,350.7795921000652,None,350.7795921000652,None,352.6122586999554,None,3,1,0.3693452998995781,352.6122586999554,None,,,,,,,,,,,,,,001,2021_Mar_01_1800,GuessTheSound,2020.2.10,60.13098936462583,
Siren_E.wav,2,3,NEW,A,,,,,0,70,70,70,,,,,,,,,,,,,,,,,,,,,,,,,,,,,,,,,,,,,,,,,,,,,,,,,,,,,,,,,,,,,,,,,,,,,,,,,,,,,,353.0134153999388,None,354.5447073200718,None,354.55310090002604,None,354.55310090002604,None,357.42854380002245,None,3,1,0.30172220012173057,357.42854380002245,None,,,,,,,,,,,,,,001,2021_Mar_01_1800,GuessTheSound,2020.2.10,60.13098936462583,
Initial/Repeat/ManWhistle.wav,1,1,OLD,A,,,,,0,71,71,71,,,,,,,,,,,,,,,,,,,,,,,,,,,,,,,,,,,,,,,,,,,,,,,,,,,,,,,,,,,,,,,,,,,,,,,,,,,,,,357.7478885999881,None,359.2612657601247,None,359.2703174999915,None,359.2703174999915,None,361.495306200115,None,1,1,0.35702849994413555,361.495306200115,None,,,,,,,,,,,,,,001,2021_Mar_01_1800,GuessTheSound,2020.2.10,60.13098936462583,
Crow_B.wav,2,3,NEW,A,,,,,0,72,72,72,,,,,,,,,,,,,,,,,,,,,,,,,,,,,,,,,,,,,,,,,,,,,,,,,,,,,,,,,,,,,,,,,,,,,,,,,,,,,,361.88025619997643,None,363.41099192006516,None,363.4226850999985,None,363.4226850999985,None,365.4950916999951,None,3,1,0.5224216999486089,365.4950916999951,None,,,,,,,,,,,,,,001,2021_Mar_01_1800,GuessTheSound,2020.2.10,60.13098936462583,
Chomp_E.wav,2,2,SIMILAR,A,,,,,0,73,73,73,,,,,,,,,,,,,,,,,,,,,,,,,,,,,,,,,,,,,,,,,,,,,,,,,,,,,,,,,,,,,,,,,,,,,,,,,,,,,,366.04775870009325,None,367.57758221998813,None,367.5804950001184,None,367.5804950001184,None,369.79497659998015,None,3,0,0.6985631000716239,369.79497659998015,None,,,,,,,,,,,,,,001,2021_Mar_01_1800,GuessTheSound,2020.2.10,60.13098936462583,
Initial/Repeat/Cup.wav,1,1,OLD,A,,,,,0,74,74,74,,,,,,,,,,,,,,,,,,,,,,,,,,,,,,,,,,,,,,,,,,,,,,,,,,,,,,,,,,,,,,,,,,,,,,,,,,,,,,370.5119237001054,None,372.0278979601106,None,372.03402730007656,None,372.03402730007656,None,373.3616458000615,None,1,1,0.6230788000393659,373.3616458000615,None,,,,,,,,,,,,,,001,2021_Mar_01_1800,GuessTheSound,2020.2.10,60.13098936462583,
Test/Foils/Bullfrog.wav,2,3,NEW,A,,,,,0,75,75,75,,,,,,,,,,,,,,,,,,,,,,,,,,,,,,,,,,,,,,,,,,,,,,,,,,,,,,,,,,,,,,,,,,,,,,,,,,,,,,374.0154655999504,None,375.5609063801589,None,375.55443900008686,None,375.55443900008686,None,378.42848230013624,None,1,0,0.29684090008959174,378.42848230013624,None,,,,,,,,,,,,,,001,2021_Mar_01_1800,GuessTheSound,2020.2.10,60.13098936462583,
Initial/Repeat/Phone_A.wav,2,2,SIMILAR,A,,,,,0,76,76,76,,,,,,,,,,,,,,,,,,,,,,,,,,,,,,,,,,,,,,,,,,,,,,,,,,,,,,,,,,,,,,,,,,,,,,,,,,,,,,378.7494397999253,None,380.2775754201226,None,380.27547390013933,None,380.27547390013933,None,383.14520659996197,None,2,1,0.784876799909398,383.14520659996197,None,,,,,,,,,,,,,,001,2021_Mar_01_1800,GuessTheSound,2020.2.10,60.13098936462583,
Initial/Repeat/Bagpipe.wav,1,1,OLD,A,,,,,0,77,77,77,,,,,,,,,,,,,,,,,,,,,,,,,,,,,,,,,,,,,,,,,,,,,,,,,,,,,,,,,,,,,,,,,,,,,,,,,,,,,,383.94955469993874,None,385.46086405992975,None,385.4698330000974,None,385.4698330000974,None,387.8448566000443,None,1,1,0.8261887000408024,387.8448566000443,None,,,,,,,,,,,,,,001,2021_Mar_01_1800,GuessTheSound,2020.2.10,60.13098936462583,
Initial/Doubled/HairDryer_A.wav,2,3,NEW,A,,,,,0,78,78,78,,,,,,,,,,,,,,,,,,,,,,,,,,,,,,,,,,,,,,,,,,,,,,,,,,,,,,,,,,,,,,,,,,,,,,,,,,,,,,388.69422830012627,None,390.21085131997245,None,390.21090429998003,None,390.21090429998003,None,392.77832629997283,None,3,1,0.4415919000748545,392.77832629997283,None,,,,,,,,,,,,,,001,2021_Mar_01_1800,GuessTheSound,2020.2.10,60.13098936462583,
Test/Foils/Airhorn.wav,1,1,OLD,A,,,,,0,79,79,79,,,,,,,,,,,,,,,,,,,,,,,,,,,,,,,,,,,,,,,,,,,,,,,,,,,,,,,,,,,,,,,,,,,,,,,,,,,,,,393.2471378999762,None,394.760836459999,None,394.7705318001099,None,394.7705318001099,None,397.32827419997193,None,3,0,0.4419017001055181,397.32827419997193,None,,,,,,,,,,,,,,001,2021_Mar_01_1800,GuessTheSound,2020.2.10,60.13098936462583,
Initial/NoRepeat/Hammer_A.wav,2,3,NEW,A,,,,,0,80,80,80,,,,,,,,,,,,,,,,,,,,,,,,,,,,,,,,,,,,,,,,,,,,,,,,,,,,,,,,,,,,,,,,,,,,,,,,,,,,,,397.7977384000551,None,399.3272985200398,None,399.33260470000096,None,399.33260470000096,None,401.8114903999958,None,3,1,0.36115050013177097,401.8114903999958,None,,,,,,,,,,,,,,001,2021_Mar_01_1800,GuessTheSound,2020.2.10,60.13098936462583,
Initial/Doubled/Cuckoo_A.wav,2,3,NEW,A,,,,,0,81,81,81,,,,,,,,,,,,,,,,,,,,,,,,,,,,,,,,,,,,,,,,,,,,,,,,,,,,,,,,,,,,,,,,,,,,,,,,,,,,,,402.1942108999938,None,403.7105239200406,None,403.71704120002687,None,403.71704120002687,None,406.2114935000427,None,3,1,0.15078889997676015,406.2114935000427,None,,,,,,,,,,,,,,001,2021_Mar_01_1800,GuessTheSound,2020.2.10,60.13098936462583,
Initial/NoRepeat/Cow.wav,1,1,OLD,A,,,,,0,82,82,82,,,,,,,,,,,,,,,,,,,,,,,,,,,,,,,,,,,,,,,,,,,,,,,,,,,,,,,,,,,,,,,,,,,,,,,,,,,,,,406.3857422999572,None,407.8940450601047,None,407.89934940007515,None,407.89934940007515,None,409.7281031999737,None,1,1,0.4518376002088189,409.7281031999737,None,,,,,,,,,,,,,,001,2021_Mar_01_1800,GuessTheSound,2020.2.10,60.13098936462583,
Footsteps_G.wav,2,3,NEW,A,,,,,0,83,83,83,,,,,,,,,,,,,,,,,,,,,,,,,,,,,,,,,,,,,,,,,,,,,,,,,,,,,,,,,,,,,,,,,,,,,,,,,,,,,,410.2139713000506,None,411.7441009200644,None,411.7513210999314,None,411.7513210999314,None,414.59484690008685,None,3,1,0.47067450010217726,414.59484690008685,None,,,,,,,,,,,,,,001,2021_Mar_01_1800,GuessTheSound,2020.2.10,60.13098936462583,
Dog_E.wav,2,3,NEW,A,,,,,0,84,84,84,,,,,,,,,,,,,,,,,,,,,,,,,,,,,,,,,,,,,,,,,,,,,,,,,,,,,,,,,,,,,,,,,,,,,,,,,,,,,,415.096246200148,None,416.6272489199415,None,416.62549709994346,None,416.62549709994346,None,418.37784170010127,None,3,1,0.7041554001625627,418.37784170010127,None,,,,,,,,,,,,,,001,2021_Mar_01_1800,GuessTheSound,2020.2.10,60.13098936462583,
Test/Foils/Bowlingpins.wav,1,1,OLD,A,,,,,0,85,85,85,,,,,,,,,,,,,,,,,,,,,,,,,,,,,,,,,,,,,,,,,,,,,,,,,,,,,,,,,,,,,,,,,,,,,,,,,,,,,,419.1149576001335,None,420.62728895999027,None,420.6359208000358,None,420.6359208000358,None,423.078071200056,None,3,0,0.4823505999520421,423.078071200056,None,,,,,,,,,,,,,,001,2021_Mar_01_1800,GuessTheSound,2020.2.10,60.13098936462583,
Piano_D.wav,2,3,NEW,A,,,,,0,86,86,86,,,,,,,,,,,,,,,,,,,,,,,,,,,,,,,,,,,,,,,,,,,,,,,,,,,,,,,,,,,,,,,,,,,,,,,,,,,,,,423.57836810010485,None,425.127301380015,None,425.12160740001127,None,425.12160740001127,None,427.9947176000569,None,3,1,0.34762510005384684,427.9947176000569,None,,,,,,,,,,,,,,001,2021_Mar_01_1800,GuessTheSound,2020.2.10,60.13098936462583,
Initial/NoRepeat/Fireworks.wav,2,3,NEW,A,,,,,0,87,87,87,,,,,,,,,,,,,,,,,,,,,,,,,,,,,,,,,,,,,,,,,,,,,,,,,,,,,,,,,,,,,,,,,,,,,,,,,,,,,,428.3647301001474,None,429.910521980119,None,429.91732340003364,None,429.91732340003364,None,432.79464440001175,None,3,1,0.3475307000335306,432.79464440001175,None,,,,,,,,,,,,,,001,2021_Mar_01_1800,GuessTheSound,2020.2.10,60.13098936462583,
Test/Foils/Bullfrog.wav,1,1,OLD,A,,,,,0,88,88,88,,,,,,,,,,,,,,,,,,,,,,,,,,,,,,,,,,,,,,,,,,,,,,,,,,,,,,,,,,,,,,,,,,,,,,,,,,,,,,433.1612162999809,None,434.67704202015886,None,434.6739270000253,None,434.6739270000253,None,437.544454399962,None,1,1,0.2633839000482112,437.544454399962,None,,,,,,,,,,,,,,001,2021_Mar_01_1800,GuessTheSound,2020.2.10,60.13098936462583,
Siren_B.wav,2,2,SIMILAR,A,,,,,0,89,89,89,,,,,,,,,,,,,,,,,,,,,,,,,,,,,,,,,,,,,,,,,,,,,,,,,,,,,,,,,,,,,,,,,,,,,,,,,,,,,,437.8295328000095,None,439.3770687801065,None,439.37107210000977,None,439.37107210000977,None,442.2442280999385,None,2,1,0.6332642000634223,442.2442280999385,None,,,,,,,,,,,,,,001,2021_Mar_01_1800,GuessTheSound,2020.2.10,60.13098936462583,
Crow_A.wav,2,2,SIMILAR,A,,,,,0,90,90,90,,,,,,,,,,,,,,,,,,,,,,,,,,,,,,,,,,,,,,,,,,,,,,,,,,,,,,,,,,,,,,,,,,,,,,,,,,,,,,442.8966956001241,None,444.41008486000356,None,444.4195302000735,None,444.4195302000735,None,446.26114040007815,None,1,0,0.592080500209704,446.26114040007815,None,,,,,,,,,,,,,,001,2021_Mar_01_1800,GuessTheSound,2020.2.10,60.13098936462583,
Goat_D.wav,2,3,NEW,A,,,,,0,91,91,91,,,,,,,,,,,,,,,,,,,,,,,,,,,,,,,,,,,,,,,,,,,,,,,,,,,,,,,,,,,,,,,,,,,,,,,,,,,,,,446.88075520005077,None,448.4101016201545,None,448.40718670003116,None,448.40718670003116,None,450.1276201000437,None,3,1,0.5539756000507623,450.1276201000437,None,,,,,,,,,,,,,,001,2021_Mar_01_1800,GuessTheSound,2020.2.10,60.13098936462583,
Initial/Doubled/HairDryer_A.wav,1,1,OLD,A,,,,,0,92,92,92,,,,,,,,,,,,,,,,,,,,,,,,,,,,,,,,,,,,,,,,,,,,,,,,,,,,,,,,,,,,,,,,,,,,,,,,,,,,,,450.7146312999539,None,452.2268529600231,None,452.23721910011955,None,452.23721910011955,None,454.80944230011664,None,1,1,0.23680409998632967,454.80944230011664,None,,,,,,,,,,,,,,001,2021_Mar_01_1800,GuessTheSound,2020.2.10,60.13098936462583,
Initial/Doubled/Cuckoo_A.wav,1,1,OLD,A,,,,,0,93,93,93,,,,,,,,,,,,,,,,,,,,,,,,,,,,,,,,,,,,,,,,,,,,,,,,,,,,,,,,,,,,,,,,,,,,,,,,,,,,,,455.0772087001242,None,456.5920744599542,None,456.59905280009843,None,456.59905280009843,None,459.0936066999566,None,1,1,0.2427753999363631,459.0936066999566,None,,,,,,,,,,,,,,001,2021_Mar_01_1800,GuessTheSound,2020.2.10,60.13098936462583,
Coin_D.wav,2,3,NEW,A,,,,,0,94,94,94,,,,,,,,,,,,,,,,,,,,,,,,,,,,,,,,,,,,,,,,,,,,,,,,,,,,,,,,,,,,,,,,,,,,,,,,,,,,,,459.35968120000325,None,460.8768254200928,None,460.88279299996793,None,460.88279299996793,None,463.06074730004184,None,3,1,0.2257542998995632,463.06074730004184,None,,,,,,,,,,,,,,001,2021_Mar_01_1800,GuessTheSound,2020.2.10,60.13098936462583,
Initial/Repeat/Howl.wav,2,3,NEW,A,,,,,0,95,95,95,,,,,,,,,,,,,,,,,,,,,,,,,,,,,,,,,,,,,,,,,,,,,,,,,,,,,,,,,,,,,,,,,,,,,,,,,,,,,,463.31481859995984,None,464.8433269200847,None,464.83895030012354,None,464.83895030012354,None,467.59421949996613,None,3,1,0.21820610016584396,467.59421949996613,None,,,,,,,,,,,,,,001,2021_Mar_01_1800,GuessTheSound,2020.2.10,60.13098936462583,
Initial/NoRepeat/Hammer_A.wav,1,1,OLD,A,,,,,0,96,96,96,,,,,,,,,,,,,,,,,,,,,,,,,,,,,,,,,,,,,,,,,,,,,,,,,,,,,,,,,,,,,,,,,,,,,,,,,,,,,,467.82893289998174,None,469.3431435600622,None,469.35249279998243,None,469.35249279998243,None,471.82730030012317,None,1,1,0.3059256998822093,471.82730030012317,None,,,,,,,,,,,,,,001,2021_Mar_01_1800,GuessTheSound,2020.2.10,60.13098936462583,
Initial/NoRepeat/Helicopter_A.wav,2,3,NEW,A,,,,,0,97,97,97,,,,,,,,,,,,,,,,,,,,,,,,,,,,,,,,,,,,,,,,,,,,,,,,,,,,,,,,,,,,,,,,,,,,,,,,,,,,,,472.15978020010516,None,473.67649501995186,None,473.6838901001029,None,473.6838901001029,None,476.14390040002763,None,3,1,0.2686928999610245,476.14390040002763,None,,,,,,,,,,,,,,001,2021_Mar_01_1800,GuessTheSound,2020.2.10,60.13098936462583,
Initial/Doubled/Bubbles_A.wav,2,3,NEW,A,,,,,0,98,98,98,,,,,,,,,,,,,,,,,,,,,,,,,,,,,,,,,,,,,,,,,,,,,,,,,,,,,,,,,,,,,,,,,,,,,,,,,,,,,,476.4446153999306,None,477.95979476005306,None,477.96613149996847,None,477.96613149996847,None,480.3771073000971,None,3,1,0.31704679992981255,480.3771073000971,None,,,,,,,,,,,,,,001,2021_Mar_01_1800,GuessTheSound,2020.2.10,60.13098936462583,
Footsteps_F.wav,2,2,SIMILAR,A,,,,,0,99,99,99,,,,,,,,,,,,,,,,,,,,,,,,,,,,,,,,,,,,,,,,,,,,,,,,,,,,,,,,,,,,,,,,,,,,,,,,,,,,,,480.7103349000681,None,482.2264179199934,None,482.2284016001504,None,482.2284016001504,None,485.07713240012527,None,2,1,0.6154580998700112,485.07713240012527,None,,,,,,,,,,,,,,001,2021_Mar_01_1800,GuessTheSound,2020.2.10,60.13098936462583,
Growl_G.wav,2,3,NEW,A,,,,,0,100,100,100,,,,,,,,,,,,,,,,,,,,,,,,,,,,,,,,,,,,,,,,,,,,,,,,,,,,,,,,,,,,,,,,,,,,,,,,,,,,,,485.7100162000861,None,487.2264728200622,None,487.22273580008186,None,487.22273580008186,None,489.82712829997763,None,3,1,0.3954171999357641,489.82712829997763,None,,,,,,,,,,,,,,001,2021_Mar_01_1800,GuessTheSound,2020.2.10,60.13098936462583,
Test/Foils/Horse.wav,2,3,NEW,A,,,,,0,101,101,101,,,,,,,,,,,,,,,,,,,,,,,,,,,,,,,,,,,,,,,,,,,,,,,,,,,,,,,,,,,,,,,,,,,,,,,,,,,,,,490.24538059998304,None,491.77656031996014,None,491.7709349999204,None,491.7709349999204,None,493.9604964000173,None,3,1,0.3874135999940336,493.9604964000173,None,,,,,,,,,,,,,,001,2021_Mar_01_1800,GuessTheSound,2020.2.10,60.13098936462583,
Piano_D.wav,1,1,OLD,A,,,,,0,102,102,102,,,,,,,,,,,,,,,,,,,,,,,,,,,,,,,,,,,,,,,,,,,,,,,,,,,,,,,,,,,,,,,,,,,,,,,,,,,,,,494.3787177000195,None,495.9095354200341,None,495.90369680011645,None,495.90369680011645,None,498.77709520002827,None,1,1,0.27307639992795885,498.77709520002827,None,,,,,,,,,,,,,,001,2021_Mar_01_1800,GuessTheSound,2020.2.10,60.13098936462583,
Dog_F.wav,2,2,SIMILAR,A,,,,,0,103,103,103,,,,,,,,,,,,,,,,,,,,,,,,,,,,,,,,,,,,,,,,,,,,,,,,,,,,,,,,,,,,,,,,,,,,,,,,,,,,,,499.0799744001124,None,500.5928192600375,None,500.6025962000713,None,500.6025962000713,None,502.27699930011295,None,2,1,1.3027890000957996,502.27699930011295,None,,,,,,,,,,,,,,001,2021_Mar_01_1800,GuessTheSound,2020.2.10,60.13098936462583,
Initial/NoRepeat/Fireworks.wav,1,1,OLD,A,,,,,0,104,104,104,,,,,,,,,,,,,,,,,,,,,,,,,,,,,,,,,,,,,,,,,,,,,,,,,,,,,,,,,,,,,,,,,,,,,,,,,,,,,,503.61442420003004,None,505.12616026012694,None,505.1348250999581,None,505.1348250999581,None,508.01028500008397,None,1,1,0.2588264001533389,508.01028500008397,None,,,,,,,,,,,,,,001,2021_Mar_01_1800,GuessTheSound,2020.2.10,60.13098936462583,
Initial/Repeat/Printer.wav,2,3,NEW,A,,,,,0,105,105,105,,,,,,,,,,,,,,,,,,,,,,,,,,,,,,,,,,,,,,,,,,,,,,,,,,,,,,,,,,,,,,,,,,,,,,,,,,,,,,508.29571630014107,None,509.8432183800964,None,509.83782869996503,None,509.83782869996503,None,512.6101534999907,None,3,1,0.30326039995998144,512.6101534999907,None,,,,,,,,,,,,,,001,2021_Mar_01_1800,GuessTheSound,2020.2.10,60.13098936462583,
Test/Foils/Camera.wav,2,3,NEW,A,,,,,0,106,106,106,,,,,,,,,,,,,,,,,,,,,,,,,,,,,,,,,,,,,,,,,,,,,,,,,,,,,,,,,,,,,,,,,,,,,,,,,,,,,,512.9428532000165,None,514.4747455200645,None,514.4759963001125,None,514.4759963001125,None,515.4425111999735,None,3,1,0.3856462000403553,515.4425111999735,None,,,,,,,,,,,,,,001,2021_Mar_01_1800,GuessTheSound,2020.2.10,60.13098936462583,
Clap_B.wav,2,3,NEW,A,,,,,0,107,107,107,,,,,,,,,,,,,,,,,,,,,,,,,,,,,,,,,,,,,,,,,,,,,,,,,,,,,,,,,,,,,,,,,,,,,,,,,,,,,,515.8627897999249,None,517.3916443201247,None,517.3874486000277,None,517.3874486000277,None,520.0430189000908,None,3,1,0.31004799995571375,520.0430189000908,None,,,,,,,,,,,,,,001,2021_Mar_01_1800,GuessTheSound,2020.2.10,60.13098936462583,
Initial/Repeat/PaperRip.wav,2,3,NEW,A,,,,,0,108,108,108,,,,,,,,,,,,,,,,,,,,,,,,,,,,,,,,,,,,,,,,,,,,,,,,,,,,,,,,,,,,,,,,,,,,,,,,,,,,,,520.3774429999758,None,521.9093059200327,None,521.9122091999743,None,521.9122091999743,None,523.5105066001415,None,3,1,0.3277318000327796,523.5105066001415,None,,,,,,,,,,,,,,001,2021_Mar_01_1800,GuessTheSound,2020.2.10,60.13098936462583,
Coin_E.wav,2,2,SIMILAR,A,,,,,0,109,109,109,,,,,,,,,,,,,,,,,,,,,,,,,,,,,,,,,,,,,,,,,,,,,,,,,,,,,,,,,,,,,,,,,,,,,,,,,,,,,,523.8607159000821,None,525.3926914200651,None,525.3938881999347,None,525.3938881999347,None,527.4268110000994,None,3,0,0.10615920019336045,527.4268110000994,None,,,,,,,,,,,,,,001,2021_Mar_01_1800,GuessTheSound,2020.2.10,60.13098936462583,
Initial/NoRepeat/Droplet_B.wav,2,3,NEW,A,,,,,0,110,110,110,,,,,,,,,,,,,,,,,,,,,,,,,,,,,,,,,,,,,,,,,,,,,,,,,,,,,,,,,,,,,,,,,,,,,,,,,,,,,,527.5675210000481,None,529.0925489199813,None,529.0993536000606,None,529.0993536000606,None,531.2601409000345,None,3,1,0.39541100012138486,531.2601409000345,None,,,,,,,,,,,,,,001,2021_Mar_01_1800,GuessTheSound,2020.2.10,60.13098936462583,
Test/Foils/Steam.wav,2,3,NEW,A,,,,,0,111,111,111,,,,,,,,,,,,,,,,,,,,,,,,,,,,,,,,,,,,,,,,,,,,,,,,,,,,,,,,,,,,,,,,,,,,,,,,,,,,,,531.6765453000553,None,533.19282092005,None,533.2021699000616,None,533.2021699000616,None,535.7266878001392,None,1,0,0.6302675998304039,535.7266878001392,None,,,,,,,,,,,,,,001,2021_Mar_01_1800,GuessTheSound,2020.2.10,60.13098936462583,
Initial/NoRepeat/Helicopter_A.wav,1,1,OLD,A,,,,,0,112,112,112,,,,,,,,,,,,,,,,,,,,,,,,,,,,,,,,,,,,,,,,,,,,,,,,,,,,,,,,,,,,,,,,,,,,,,,,,,,,,,536.3793256001081,None,537.8924297600286,None,537.9004665999673,None,537.9004665999673,None,540.3601925000548,None,3,0,0.31043340009637177,540.3601925000548,None,,,,,,,,,,,,,,001,2021_Mar_01_1800,GuessTheSound,2020.2.10,60.13098936462583,
CarStart_F.wav,2,3,NEW,A,,,,,0,113,113,113,,,,,,,,,,,,,,,,,,,,,,,,,,,,,,,,,,,,,,,,,,,,,,,,,,,,,,,,,,,,,,,,,,,,,,,,,,,,,,540.6925075000618,None,542.2091060200705,None,542.2197032999247,None,542.2197032999247,None,544.7098270000424,None,3,1,0.34955319995060563,544.7098270000424,None,,,,,,,,,,,,,,001,2021_Mar_01_1800,GuessTheSound,2020.2.10,60.13098936462583,
Initial/Repeat/Howl.wav,1,1,OLD,A,,,,,0,114,114,114,,,,,,,,,,,,,,,,,,,,,,,,,,,,,,,,,,,,,,,,,,,,,,,,,,,,,,,,,,,,,,,,,,,,,,,,,,,,,,545.0766259999946,None,546.5926697199698,None,546.5845075999387,None,546.5845075999387,None,549.3433215001132,None,1,1,0.018155300058424473,549.3433215001132,None,,,,,,,,,,,,,,001,2021_Mar_01_1800,GuessTheSound,2020.2.10,60.13098936462583,
Growl_H.wav,2,2,SIMILAR,A,,,,,0,115,115,115,,,,,,,,,,,,,,,,,,,,,,,,,,,,,,,,,,,,,,,,,,,,,,,,,,,,,,,,,,,,,,,,,,,,,,,,,,,,,,549.3799552000128,None,550.9257251801668,None,550.9246892000083,None,550.9246892000083,None,553.7933984000701,None,2,1,0.7370950998738408,553.7933984000701,None,,,,,,,,,,,,,,001,2021_Mar_01_1800,GuessTheSound,2020.2.10,60.13098936462583,
Goat_C.wav,2,2,SIMILAR,A,,,,,0,116,116,116,,,,,,,,,,,,,,,,,,,,,,,,,,,,,,,,,,,,,,,,,,,,,,,,,,,,,,,,,,,,,,,,,,,,,,,,,,,,,,554.5644285001326,None,556.0757034600945,None,556.0823802000377,None,556.0823802000377,None,557.8932588000316,None,3,0,1.074298899853602,557.8932588000316,None,,,,,,,,,,,,,,001,2021_Mar_01_1800,GuessTheSound,2020.2.10,60.13098936462583,
Test/Foils/Donkey.wav,2,3,NEW,A,,,,,0,117,117,117,,,,,,,,,,,,,,,,,,,,,,,,,,,,,,,,,,,,,,,,,,,,,,,,,,,,,,,,,,,,,,,,,,,,,,,,,,,,,,558.9969579000026,None,560.5258713200687,None,560.5324264001101,None,560.5324264001101,None,563.2433281999547,None,1,0,0.01977939996868372,563.2433281999547,None,,,,,,,,,,,,,,001,2021_Mar_01_1800,GuessTheSound,2020.2.10,60.13098936462583,
Initial/Repeat/PaperRip.wav,1,1,OLD,A,,,,,0,118,118,118,,,,,,,,,,,,,,,,,,,,,,,,,,,,,,,,,,,,,,,,,,,,,,,,,,,,,,,,,,,,,,,,,,,,,,,,,,,,,,563.2944600000046,None,564.8091066601453,None,564.817370200064,None,564.817370200064,None,566.4099004999734,None,1,1,0.3292513999622315,566.4099004999734,None,,,,,,,,,,,,,,001,2021_Mar_01_1800,GuessTheSound,2020.2.10,60.13098936462583,
Test/Lures/Bubbles_B.wav,2,2,SIMILAR,A,,,,,0,119,119,119,,,,,,,,,,,,,,,,,,,,,,,,,,,,,,,,,,,,,,,,,,,,,,,,,,,,,,,,,,,,,,,,,,,,,,,,,,,,,,566.7636544001289,None,568.292486520158,None,568.2953455001116,None,568.2953455001116,None,570.7432073000818,None,2,1,0.38696610019542277,570.7432073000818,None,,,,,,,,,,,,,,001,2021_Mar_01_1800,GuessTheSound,2020.2.10,60.13098936462583,
Test/Foils/Horse.wav,1,1,OLD,A,,,,,0,120,120,120,,,,,,,,,,,,,,,,,,,,,,,,,,,,,,,,,,,,,,,,,,,,,,,,,,,,,,,,,,,,,,,,,,,,,,,,,,,,,,571.159842299996,None,572.6589803600916,None,572.6678250001278,None,572.6678250001278,None,574.8581016000826,None,1,1,0.12599390000104904,574.8581016000826,None,,,,,,,,,,,,,,001,2021_Mar_01_1800,GuessTheSound,2020.2.10,60.13098936462583,
Initial/Repeat/Printer.wav,1,1,OLD,A,,,,,0,121,121,121,,,,,,,,,,,,,,,,,,,,,,,,,,,,,,,,,,,,,,,,,,,,,,,,,,,,,,,,,,,,,,,,,,,,,,,,,,,,,,575.012788400054,None,576.5253867600811,None,576.5325373001397,None,576.5325373001397,None,579.2931417999789,None,3,0,0.31820840016007423,579.2931417999789,None,,,,,,,,,,,,,,001,2021_Mar_01_1800,GuessTheSound,2020.2.10,60.13098936462583,
Test/Foils/Camera.wav,1,1,OLD,A,,,,,0,122,122,122,,,,,,,,,,,,,,,,,,,,,,,,,,,,,,,,,,,,,,,,,,,,,,,,,,,,,,,,,,,,,,,,,,,,,,,,,,,,,,579.6302827000618,None,581.1421476600924,None,581.1511131001171,None,581.1511131001171,None,582.1261569999624,None,1,1,0.47871099994517863,582.1261569999624,None,,,,,,,,,,,,,,001,2021_Mar_01_1800,GuessTheSound,2020.2.10,60.13098936462583,
Initial/NoRepeat/Droplet_B.wav,1,1,OLD,A,,,,,0,123,123,123,,,,,,,,,,,,,,,,,,,,,,,,,,,,,,,,,,,,,,,,,,,,,,,,,,,,,,,,,,,,,,,,,,,,,,,,,,,,,,582.6256150000263,None,584.1422344200778,None,584.1359109999612,None,584.1359109999612,None,586.2929170001298,None,1,1,0.7539705999661237,586.2929170001298,None,,,,,,,,,,,,,,001,2021_Mar_01_1800,GuessTheSound,2020.2.10,60.13098936462583,
Test/Foils/Steam.wav,1,1,OLD,A,,,,,0,124,124,124,,,,,,,,,,,,,,,,,,,,,,,,,,,,,,,,,,,,,,,,,,,,,,,,,,,,,,,,,,,,,,,,,,,,,,,,,,,,,,587.0767425999511,None,588.5919198599411,None,588.6006871999707,None,588.6006871999707,None,591.1260941000655,None,1,1,0.20360349980182946,591.1260941000655,None,,,,,,,,,,,,,,001,2021_Mar_01_1800,GuessTheSound,2020.2.10,60.13098936462583,
CarStart_E.wav,2,2,SIMILAR,A,,,,,0,125,125,125,,,,,,,,,,,,,,,,,,,,,,,,,,,,,,,,,,,,,,,,,,,,,,,,,,,,,,,,,,,,,,,,,,,,,,,,,,,,,,591.3606019001454,None,592.8921866199466,None,592.8974369999487,None,592.8974369999487,None,595.3928781000432,None,2,1,0.6147815999574959,595.3928781000432,None,,,,,,,,,,,,,,001,2021_Mar_01_1800,GuessTheSound,2020.2.10,60.13098936462583,
Test/Foils/Donkey.wav,1,1,OLD,A,,,,,0,126,126,126,,,,,,,,,,,,,,,,,,,,,,,,,,,,,,,,,,,,,,,,,,,,,,,,,,,,,,,,,,,,,,,,,,,,,,,,,,,,,,596.0269921999425,None,597.541880759946,None,597.5520842999686,None,597.5520842999686,None,600.2595790999476,None,1,1,0.1274657000321895,600.2595790999476,None,,,,,,,,,,,,,,001,2021_Mar_01_1800,GuessTheSound,2020.2.10,60.13098936462583,
Clap_C.wav,2,2,SIMILAR,A,,,,,0,127,127,127,,,,,,,,,,,,,,,,,,,,,,,,,,,,,,,,,,,,,,,,,,,,,,,,,,,,,,,,,,,,,,,,,,,,,,,,,,,,,,600.4098895001225,None,601.9418801201041,None,601.9509854000062,None,601.9509854000062,None,604.5928595999721,None,1,0,0.37641830020584166,604.5928595999721,None,,,,,,,,,,,,,,001,2021_Mar_01_1800,GuessTheSound,2020.2.10,60.13098936462583,
,,,,,,,,,,,,,,,,,,,,,,,,,,,,,,,,,,,,,,,,,,,,,,,,,,,,,,,,,,,,,,,,,,,,,,,,,,,,,,,,,,,,,,,,,,,,,,,,,,,,,,,,,605.0285034000408,None,605.0285034000408,None,605.0285034000408,None,space,1.8564822999760509,605.0285034000408,None,,,,001,2021_Mar_01_1800,GuessTheSound,2020.2.10,60.13098936462583,
,,,,,,,,,,,,,,,,,,,,,,,,,,,,,,,,,,,,,,,,,,,,,,,,,,,,,,,,,,,,,,,,,,,,,,,,,,,,,,,,,,,,,,,,,,,,,,,,,,,,,,,,,,,,,,,,,,,605.0285034000408,None,,,,,,,
