File,Correct,SoundFile5,Correct2,Type,trials_2.thisRepN,trials_2.thisTrialN,trials_2.thisN,trials_2.thisIndex,PracticeTrials.thisRepN,PracticeTrials.thisTrialN,PracticeTrials.thisN,PracticeTrials.thisIndex,trials.thisRepN,trials.thisTrialN,trials.thisN,trials.thisIndex,InstructionTxt.started,InstructionTxt.stopped,WelcomContinue.started,WelcomContinue.stopped,VolumeBeginTxt.started,VolumeBeginTxt.stopped,VolumeContinueKey.keys,VolumeContinueKey.rt,VolumeContinueKey.started,VolumeContinueKey.stopped,text.started,text.stopped,Music.started,Music.stopped,AdjustContinue.started,AdjustContinue.stopped,HeadphoneCheckBeing.started,HeadphoneCheckBeing.stopped,HeadphoneContinue.started,HeadphoneContinue.stopped,HeadphoneContinueKey.keys,HeadphoneContinueKey.rt,HeadphoneContinueKey.started,HeadphoneContinueKey.stopped,CheckSound.started,CheckSound.stopped,QuestionTxt.started,QuestionTxt.stopped,CheckTrial.started,CheckTrial.stopped,CrossHeadphone.started,CrossHeadphone.stopped,CheckResp.keys,CheckResp.corr,CheckResp.rt,CheckResp.started,CheckResp.stopped,FeedbackTxt.started,FeedbackTxt.stopped,text_3.started,text_3.stopped,text_4.started,text_4.stopped,key_resp_2.keys,key_resp_2.rt,key_resp_2.started,key_resp_2.stopped,text_5.started,text_5.stopped,text_6.started,text_6.stopped,key_resp_3.keys,key_resp_3.rt,key_resp_3.started,key_resp_3.stopped,InstructionTxt2.started,InstructionTxt2.stopped,WelcomeContinue2.started,WelcomeContinue2.stopped,WelcomeContinueKey2.keys,WelcomeContinueKey2.rt,WelcomeContinueKey2.started,WelcomeContinueKey2.stopped,TrialNumber.started,TrialNumber.stopped,PracticeSound.started,PracticeSound.stopped,PracticeCross.started,PracticeCross.stopped,Practice_resp.keys,Practice_resp.corr,Practice_resp.rt,Practice_resp.started,Practice_resp.stopped,PracticeMssg.started,PracticeMssg.stopped,FeedbackCross.started,FeedbackCross.stopped,Continue.started,Continue.stopped,Options.started,Options.stopped,FeedbackMssg.started,FeedbackMssg.stopped,StartTxt.started,StartTxt.stopped,StartTast.keys,StartTast.rt,StartTast.started,StartTast.stopped,ContinueStart.started,ContinueStart.stopped,no_3.started,no_3.stopped,TargetSound.started,TargetSound.stopped,Cross.started,Cross.stopped,ItemNumber.started,ItemNumber.stopped,text_2.started,text_2.stopped,key_resp.keys,key_resp.corr,key_resp.rt,key_resp.started,key_resp.stopped,participant,session,date,expName,psychopyVersion,frameRate,
,,,,,,,,,,,,,,,,,16.369520199950784,None,16.369520199950784,None,18.531185299973004,None,space,1.2422758999746293,18.531185299973004,None,,,,,,,,,,,,,,,,,,,,,,,,,,,,,,,,,,,,,,,,,,,,,,,,,,,,,,,,,,,,,,,,,,,,,,,,,,,,,,,,,,,,,,,,,,,,,,,,,,,001,2021_Feb_18_0136,GuessTheSound,2020.2.10,59.97562591552984,
,,,,,,,,,,,,,,,,,,,,,,,,,,,19.859092699945904,None,19.84808097998612,None,19.859092699945904,None,20.331331399967894,None,20.331331399967894,None,space,1.492002599989064,20.331331399967894,None,,,,,,,,,,,,,,,,,,,,,,,,,,,,,,,,,,,,,,,,,,,,,,,,,,,,,,,,,,,,,,,,,,,,,,,,,,,,,,,,,,,,,001,2021_Feb_18_0136,GuessTheSound,2020.2.10,59.97562591552984,
Headphone/t2_1.wav,2,,,,0,0,0,2,,,,,,,,,,,,,,,,,,,,,,,,,,,,,,,,,21.947914139996286,None,26.480845300015062,None,21.95296879997477,26.497463200008497,21.95296879997477,26.497463200008497,3,0,0.37191499990876764,26.480845300015062,None,26.89392850000877,None,,,,,,,,,,,,,,,,,,,,,,,,,,,,,,,,,,,,,,,,,,,,,,,,,,,,,,,,,,,,,,,,,,,,,,001,2021_Feb_18_0136,GuessTheSound,2020.2.10,59.97562591552984,
Headphone/t3_1.wav,3,,,,0,1,1,4,,,,,,,,,,,,,,,,,,,,,,,,,,,,,,,,,27.93061866001226,None,32.464297399972565,None,27.930217399960384,32.481014899909496,27.930217399960384,32.481014899909496,2,0,0.5004520999500528,32.464297399972565,None,32.98042469995562,None,,,,,,,,,,,,,,,,,,,,,,,,,,,,,,,,,,,,,,,,,,,,,,,,,,,,,,,,,,,,,,,,,,,,,,001,2021_Feb_18_0136,GuessTheSound,2020.2.10,59.97562591552984,
Headphone/t2_2.wav,2,,,,0,2,2,3,,,,,,,,,,,,,,,,,,,,,,,,,,,,,,,,,34.063795520015994,None,38.58092360000592,None,34.05836129991803,38.59746489999816,34.05836129991803,38.59746489999816,1,0,0.5855594000313431,38.58092360000592,None,39.1971923999954,None,,,,,,,,,,,,,,,,,,,,,,,,,,,,,,,,,,,,,,,,,,,,,,,,,,,,,,,,,,,,,,,,,,,,,,001,2021_Feb_18_0136,GuessTheSound,2020.2.10,59.97562591552984,
Headphone/t3_2.wav,3,,,,0,3,3,5,,,,,,,,,,,,,,,,,,,,,,,,,,,,,,,,,40.23042505998165,None,44.74746280000545,None,40.226023499970324,44.7639680999564,40.226023499970324,44.7639680999564,2,0,0.7443619000259787,44.74746280000545,None,45.513511699973606,None,,,,,,,,,,,,,,,,,,,,,,,,,,,,,,,,,,,,,,,,,,,,,,,,,,,,,,,,,,,,,,,,,,,,,,001,2021_Feb_18_0136,GuessTheSound,2020.2.10,59.97562591552984,
Headphone/t1_2.wav,1,,,,0,4,4,1,,,,,,,,,,,,,,,,,,,,,,,,,,,,,,,,,46.63036506001372,None,51.14737769996282,None,46.626399599947035,51.16399199992884,46.626399599947035,51.16399199992884,2,0,0.43050459993537515,51.14737769996282,None,51.59712089993991,None,,,,,,,,,,,,,,,,,,,,,,,,,,,,,,,,,,,,,,,,,,,,,,,,,,,,,,,,,,,,,,,,,,,,,,001,2021_Feb_18_0136,GuessTheSound,2020.2.10,59.97562591552984,
Headphone/t1_1.wav,1,,,,0,5,5,0,,,,,,,,,,,,,,,,,,,,,,,,,,,,,,,,,52.66353619995061,None,57.197399299941026,None,52.66800589999184,57.21385780000128,52.66800589999184,57.21385780000128,1,1,0.5771598999854177,57.197399299941026,None,57.805859999964014,None,,,,,,,,,,,,,,,,,,,,,,,,,,,,,,,,,,,,,,,,,,,,,,,,,,,,,,,,,,,,,,,,,,,,,,001,2021_Feb_18_0136,GuessTheSound,2020.2.10,59.97562591552984,
,,,,,,,,,,,,,,,,,,,,,,,,,,,,,,,,,,,,,,,,,,,,,,,,,,,,,,,,58.81497900001705,None,58.81497900001705,None,space,5.210046499967575,58.81497900001705,None,,,,,,,,,,,,,,,,,,,,,,,,,,,,,,,,,,,,,,,,,,,,,,,,,,,,,,,,,,,,,,001,2021_Feb_18_0136,GuessTheSound,2020.2.10,59.97562591552984,
,,,,,,,,,,,,,,,,,,,,,,,,,,,,,,,,,,,,,,,,,,,,,,,,,,,,,,,,,,,,,,,,64.05114240001421,None,64.05114240001421,None,space,4.1720746998908,64.05114240001421,None,,,,,,,,,,,,,,,,,,,,,,,,,,,,,,,,,,,,,,,,,,,,,,,,,,,,,,001,2021_Feb_18_0136,GuessTheSound,2020.2.10,59.97562591552984,
,,,,,,,,,,,,,,,,,,,,,,,,,,,,,,,,,,,,,,,,,,,,,,,,,,,,,,,,,,,,,,,,,,,,,,,,68.24881519994233,None,68.24881519994233,None,space,1.8445398999610916,68.24881519994233,None,,,,,,,,,,,,,,,,,,,,,,,,,,,,,,,,,,,,,,,,,,,,,,001,2021_Feb_18_0136,GuessTheSound,2020.2.10,59.97562591552984,
,2,Practice/Seagull_A.wav,3,NEW,,,,,0,0,0,0,,,,,,,,,,,,,,,,,,,,,,,,,,,,,,,,,,,,,,,,,,,,,,,,,,,,,,,,,,,,,,,,,,,,70.27796669991221,None,70.28058011995162,None,70.27796669991221,None,2,1,1.3194298999151215,72.56762649992015,None,72.56762649992015,None,72.56762649992015,None,72.56762649992015,None,72.56762649992015,None,73.91828969994094,None,,,,,,,,,,,,,,,,,,,,,,,,,001,2021_Feb_18_0136,GuessTheSound,2020.2.10,59.97562591552984,
,2,Practice/Skid_B.wav,3,NEW,,,,,0,1,1,1,,,,,,,,,,,,,,,,,,,,,,,,,,,,,,,,,,,,,,,,,,,,,,,,,,,,,,,,,,,,,,,,,,,,74.95150309999008,None,74.94672234000171,None,74.95150309999008,None,2,1,0.7431477999780327,77.06401659990661,None,77.06401659990661,None,77.06401659990661,None,77.06401659990661,None,77.06401659990661,None,77.8298859000206,None,,,,,,,,,,,,,,,,,,,,,,,,,001,2021_Feb_18_0136,GuessTheSound,2020.2.10,59.97562591552984,
,1,Practice/Seagull_A.wav,1,OLD,,,,,0,2,2,2,,,,,,,,,,,,,,,,,,,,,,,,,,,,,,,,,,,,,,,,,,,,,,,,,,,,,,,,,,,,,,,,,,,,78.83942450000905,None,78.84670803991611,None,78.83942450000905,None,2,0,0.7719156999373809,81.12710899999365,None,81.12710899999365,None,81.12710899999365,None,81.12710899999365,None,81.12710899999365,None,81.93568829994183,None,,,,,,,,,,,,,,,,,,,,,,,,,001,2021_Feb_18_0136,GuessTheSound,2020.2.10,59.97562591552984,
,2,Practice/Gargle_A.wav,3,NEW,,,,,0,3,3,3,,,,,,,,,,,,,,,,,,,,,,,,,,,,,,,,,,,,,,,,,,,,,,,,,,,,,,,,,,,,,,,,,,,,82.97875299991574,None,82.97998965992592,None,82.97875299991574,None,2,1,0.3446834000060335,85.25884539994877,None,85.25884539994877,None,85.25884539994877,None,85.25884539994877,None,85.25884539994877,None,85.64152619999368,None,,,,,,,,,,,,,,,,,,,,,,,,,001,2021_Feb_18_0136,GuessTheSound,2020.2.10,59.97562591552984,
,2,Practice/Gargle_B.wav,2,SIMILAR,,,,,0,4,4,4,,,,,,,,,,,,,,,,,,,,,,,,,,,,,,,,,,,,,,,,,,,,,,,,,,,,,,,,,,,,,,,,,,,,86.67225599999074,None,86.663383139926,None,86.67225599999074,None,2,1,1.7824700999772176,88.75911719992291,None,88.75911719992291,None,88.75911719992291,None,88.75911719992291,None,88.75911719992291,None,90.56307189993095,None,,,,,,,,,,,,,,,,,,,,,,,,,001,2021_Feb_18_0136,GuessTheSound,2020.2.10,59.97562591552984,
,,,,,,,,,,,,,,,,,,,,,,,,,,,,,,,,,,,,,,,,,,,,,,,,,,,,,,,,,,,,,,,,,,,,,,,,,,,,,,,,,,,,,,,,,,,,,,,,,,,,,91.5640362999402,None,space,1.9290537999477237,91.5640362999402,None,,,,,,,,,,,,,,,,,,,001,2021_Feb_18_0136,GuessTheSound,2020.2.10,59.97562591552984,
,2,Initial/NoRepeat/Elephant_A.wav,3,NEW,,,,,,,,,0,0,0,0,,,,,,,,,,,,,,,,,,,,,,,,,,,,,,,,,,,,,,,,,,,,,,,,,,,,,,,,,,,,,,,,,,,,,,,,,,,,,,,,,,,,,,,,,,,91.5640362999402,None,93.66029889998026,None,95.046545439912,None,95.04914179991465,None,95.04914179991465,None,98.09687389992177,None,2,1,5.7670614999951795,98.09687389992177,None,,001,2021_Feb_18_0136,GuessTheSound,2020.2.10,59.97562591552984,
,2,Initial/NoRepeat/Thunder_A.wav,3,NEW,,,,,,,,,0,1,1,1,,,,,,,,,,,,,,,,,,,,,,,,,,,,,,,,,,,,,,,,,,,,,,,,,,,,,,,,,,,,,,,,,,,,,,,,,,,,,,,,,,,,,,,,,,,,,103.87977519992273,None,105.39629603996872,None,105.39690679998603,None,105.39690679998603,None,108.38004089996684,None,2,1,0.5254878000123426,108.38004089996684,None,,001,2021_Feb_18_0136,GuessTheSound,2020.2.10,59.97562591552984,
,2,Test/Lures/Chime_B.wav,3,NEW,,,,,,,,,0,2,2,2,,,,,,,,,,,,,,,,,,,,,,,,,,,,,,,,,,,,,,,,,,,,,,,,,,,,,,,,,,,,,,,,,,,,,,,,,,,,,,,,,,,,,,,,,,,,,108.92971599998418,None,110.44633513996376,None,110.44464709993917,None,110.44464709993917,None,113.26320169994142,None,2,1,0.499526200001128,113.26320169994142,None,,001,2021_Feb_18_0136,GuessTheSound,2020.2.10,59.97562591552984,
,2,Initial/NoRepeat/Toilet_B.wav,3,NEW,,,,,,,,,0,3,3,3,,,,,,,,,,,,,,,,,,,,,,,,,,,,,,,,,,,,,,,,,,,,,,,,,,,,,,,,,,,,,,,,,,,,,,,,,,,,,,,,,,,,,,,,,,,,,113.77969959995244,None,115.29631464001721,None,115.29922859999351,None,115.29922859999351,None,118.21316159993876,None,2,1,0.3249771000118926,118.21316159993876,None,,001,2021_Feb_18_0136,GuessTheSound,2020.2.10,59.97562591552984,
,2,Test/Foils/Typing.wav,3,NEW,,,,,,,,,0,4,4,4,,,,,,,,,,,,,,,,,,,,,,,,,,,,,,,,,,,,,,,,,,,,,,,,,,,,,,,,,,,,,,,,,,,,,,,,,,,,,,,,,,,,,,,,,,,,,118.56298169994261,None,120.07958254001568,None,120.07822049991228,None,120.07822049991228,None,122.94658699992578,None,2,1,0.32213310000952333,122.94658699992578,None,,001,2021_Feb_18_0136,GuessTheSound,2020.2.10,59.97562591552984,
,2,Initial/Repeat/Pour.wav,3,NEW,,,,,,,,,0,5,5,5,,,,,,,,,,,,,,,,,,,,,,,,,,,,,,,,,,,,,,,,,,,,,,,,,,,,,,,,,,,,,,,,,,,,,,,,,,,,,,,,,,,,,,,,,,,,,123.29611969995312,None,124.81292743997182,None,124.81886379991192,None,124.81886379991192,None,127.39638609997928,None,2,1,0.43765380000695586,127.39638609997928,None,,001,2021_Feb_18_0136,GuessTheSound,2020.2.10,59.97562591552984,
,1,Initial/NoRepeat/Thunder_A.wav,1,OLD,,,,,,,,,0,6,6,6,,,,,,,,,,,,,,,,,,,,,,,,,,,,,,,,,,,,,,,,,,,,,,,,,,,,,,,,,,,,,,,,,,,,,,,,,,,,,,,,,,,,,,,,,,,,,127.86271529993974,None,129.37951813992112,None,129.37728619994596,None,129.37728619994596,None,132.36308209993877,None,1,1,0.367787400027737,132.36308209993877,None,,001,2021_Feb_18_0136,GuessTheSound,2020.2.10,59.97562591552984,
,2,Initial/NoRepeat/Sleighbells_B.wav,3,NEW,,,,,,,,,0,7,7,7,,,,,,,,,,,,,,,,,,,,,,,,,,,,,,,,,,,,,,,,,,,,,,,,,,,,,,,,,,,,,,,,,,,,,,,,,,,,,,,,,,,,,,,,,,,,,132.74622809991706,None,134.2627560400171,None,134.26773550000507,None,134.26773550000507,None,136.69645209994633,None,2,1,0.3160711999516934,136.69645209994633,None,,001,2021_Feb_18_0136,GuessTheSound,2020.2.10,59.97562591552984,
,2,Initial/Repeat/Buzz.wav,3,NEW,,,,,,,,,0,8,8,8,,,,,,,,,,,,,,,,,,,,,,,,,,,,,,,,,,,,,,,,,,,,,,,,,,,,,,,,,,,,,,,,,,,,,,,,,,,,,,,,,,,,,,,,,,,,,137.02936939999927,None,138.54610593994147,None,138.5504606999457,None,138.5504606999457,None,140.8630153000122,None,2,1,0.4384844999294728,140.8630153000122,None,,001,2021_Feb_18_0136,GuessTheSound,2020.2.10,59.97562591552984,
,2,Initial/NoRepeat/Baby_B.wav,3,NEW,,,,,,,,,0,9,9,9,,,,,,,,,,,,,,,,,,,,,,,,,,,,,,,,,,,,,,,,,,,,,,,,,,,,,,,,,,,,,,,,,,,,,,,,,,,,,,,,,,,,,,,,,,,,,141.32935899996664,None,142.86266086001413,None,142.8564363999758,None,142.8564363999758,None,145.8964615999721,None,2,1,0.3244603000348434,145.8964615999721,None,,001,2021_Feb_18_0136,GuessTheSound,2020.2.10,59.97562591552984,
,2,Initial/NoRepeat/Mosquito_B.wav,3,NEW,,,,,,,,,0,10,10,10,,,,,,,,,,,,,,,,,,,,,,,,,,,,,,,,,,,,,,,,,,,,,,,,,,,,,,,,,,,,,,,,,,,,,,,,,,,,,,,,,,,,,,,,,,,,,146.24595589993987,None,147.762721639988,None,147.76408290001564,None,147.76408290001564,None,149.91310479992535,None,2,1,0.5369608000619337,149.91310479992535,None,,001,2021_Feb_18_0136,GuessTheSound,2020.2.10,59.97562591552984,
,1,Test/Foils/Typing.wav,1,OLD,,,,,,,,,0,11,11,11,,,,,,,,,,,,,,,,,,,,,,,,,,,,,,,,,,,,,,,,,,,,,,,,,,,,,,,,,,,,,,,,,,,,,,,,,,,,,,,,,,,,,,,,,,,,,150.4791088999482,None,151.97911961995996,None,151.9862562000053,None,151.9862562000053,None,154.84617999999318,None,1,1,0.5524949999526143,154.84617999999318,None,,001,2021_Feb_18_0136,GuessTheSound,2020.2.10,59.97562591552984,
,2,Initial/Doubled/Chime_A.wav,2,SIMILAR,,,,,,,,,0,12,12,12,,,,,,,,,,,,,,,,,,,,,,,,,,,,,,,,,,,,,,,,,,,,,,,,,,,,,,,,,,,,,,,,,,,,,,,,,,,,,,,,,,,,,,,,,,,,,155.42926919995807,None,156.92907651993445,None,156.93453869991936,None,156.93453869991936,None,159.76282129995525,None,1,0,0.34996240003965795,159.76282129995525,None,,001,2021_Feb_18_0136,GuessTheSound,2020.2.10,59.97562591552984,
,2,Test/Foils/DialTone.wav,3,NEW,,,,,,,,,0,13,13,13,,,,,,,,,,,,,,,,,,,,,,,,,,,,,,,,,,,,,,,,,,,,,,,,,,,,,,,,,,,,,,,,,,,,,,,,,,,,,,,,,,,,,,,,,,,,,160.12916219991166,None,161.64586133991833,None,161.65342180000152,None,161.65342180000152,None,164.16264320001937,None,2,1,0.3676524000475183,164.16264320001937,None,,001,2021_Feb_18_0136,GuessTheSound,2020.2.10,59.97562591552984,
,1,Initial/NoRepeat/Elephant_A.wav,1,OLD,,,,,,,,,0,14,14,14,,,,,,,,,,,,,,,,,,,,,,,,,,,,,,,,,,,,,,,,,,,,,,,,,,,,,,,,,,,,,,,,,,,,,,,,,,,,,,,,,,,,,,,,,,,,,164.54583600000478,None,166.04579651998355,None,166.05325090000406,None,166.05325090000406,None,169.11275099997874,None,1,1,0.28677250002510846,169.11275099997874,None,,001,2021_Feb_18_0136,GuessTheSound,2020.2.10,59.97562591552984,
,2,Initial/Doubled/Writing_A.wav,3,NEW,,,,,,,,,0,15,15,15,,,,,,,,,,,,,,,,,,,,,,,,,,,,,,,,,,,,,,,,,,,,,,,,,,,,,,,,,,,,,,,,,,,,,,,,,,,,,,,,,,,,,,,,,,,,,169.42895119998138,None,170.94571143998763,None,170.94889779994264,None,170.94889779994264,None,173.6460509999888,None,2,1,0.4051707999315113,173.6460509999888,None,,001,2021_Feb_18_0136,GuessTheSound,2020.2.10,59.97562591552984,
,2,Initial/NoRepeat/Faucet_A.wav,3,NEW,,,,,,,,,0,16,16,16,,,,,,,,,,,,,,,,,,,,,,,,,,,,,,,,,,,,,,,,,,,,,,,,,,,,,,,,,,,,,,,,,,,,,,,,,,,,,,,,,,,,,,,,,,,,,174.07862529996783,None,175.57900642000604,None,175.5882142999908,None,175.5882142999908,None,178.06265689991415,None,2,1,0.4948928001103923,178.06265689991415,None,,001,2021_Feb_18_0136,GuessTheSound,2020.2.10,59.97562591552984,
,1,Initial/NoRepeat/Toilet_B.wav,1,OLD,,,,,,,,,0,17,17,17,,,,,,,,,,,,,,,,,,,,,,,,,,,,,,,,,,,,,,,,,,,,,,,,,,,,,,,,,,,,,,,,,,,,,,,,,,,,,,,,,,,,,,,,,,,,,178.57902750000358,None,180.07895261994562,None,180.0867110999534,None,180.0867110999534,None,183.0125992000103,None,1,1,0.2782921999460086,183.0125992000103,None,,001,2021_Feb_18_0136,GuessTheSound,2020.2.10,59.97562591552984,
,2,Pour_C.wav,2,SIMILAR,,,,,,,,,0,18,18,18,,,,,,,,,,,,,,,,,,,,,,,,,,,,,,,,,,,,,,,,,,,,,,,,,,,,,,,,,,,,,,,,,,,,,,,,,,,,,,,,,,,,,,,,,,,,,183.3122558000032,None,184.82878893991,None,184.8265746999532,None,184.8265746999532,None,187.82930079998914,None,2,1,0.5721049000276253,187.82930079998914,None,,001,2021_Feb_18_0136,GuessTheSound,2020.2.10,59.97562591552984,
,1,Initial/NoRepeat/Sleighbells_B.wav,1,OLD,,,,,,,,,0,19,19,19,,,,,,,,,,,,,,,,,,,,,,,,,,,,,,,,,,,,,,,,,,,,,,,,,,,,,,,,,,,,,,,,,,,,,,,,,,,,,,,,,,,,,,,,,,,,,188.42885989998467,None,189.92894691999535,None,189.93862939998507,None,189.93862939998507,None,192.3623616999248,None,1,1,0.8987191000487655,192.3623616999248,None,,001,2021_Feb_18_0136,GuessTheSound,2020.2.10,59.97562591552984,
,2,Initial/Doubled/Bubbles_A.wav,3,NEW,,,,,,,,,0,20,20,20,,,,,,,,,,,,,,,,,,,,,,,,,,,,,,,,,,,,,,,,,,,,,,,,,,,,,,,,,,,,,,,,,,,,,,,,,,,,,,,,,,,,,,,,,,,,,193.27866770001128,None,194.79544214000924,None,194.79562719992828,None,194.79562719992828,None,197.2123632999137,None,2,1,0.6963447000598535,197.2123632999137,None,,001,2021_Feb_18_0136,GuessTheSound,2020.2.10,59.97562591552984,
,1,Initial/Repeat/Buzz.wav,1,OLD,,,,,,,,,0,21,21,21,,,,,,,,,,,,,,,,,,,,,,,,,,,,,,,,,,,,,,,,,,,,,,,,,,,,,,,,,,,,,,,,,,,,,,,,,,,,,,,,,,,,,,,,,,,,,197.92882639996242,None,199.4288208199665,None,199.43488249997608,None,199.43488249997608,None,201.74573219998274,None,1,1,0.3642869000323117,201.74573219998274,None,,001,2021_Feb_18_0136,GuessTheSound,2020.2.10,59.97562591552984,
,2,Baby_A.wav,2,SIMILAR,,,,,,,,,0,22,22,22,,,,,,,,,,,,,,,,,,,,,,,,,,,,,,,,,,,,,,,,,,,,,,,,,,,,,,,,,,,,,,,,,,,,,,,,,,,,,,,,,,,,,,,,,,,,,202.12877680000383,None,203.6287334199529,None,203.6375234000152,None,203.6375234000152,None,206.2293134999927,None,2,1,0.4021280000451952,206.2293134999927,None,,001,2021_Feb_18_0136,GuessTheSound,2020.2.10,59.97562591552984,
,2,Writing_B.wav,2,SIMILAR,,,,,,,,,0,23,23,23,,,,,,,,,,,,,,,,,,,,,,,,,,,,,,,,,,,,,,,,,,,,,,,,,,,,,,,,,,,,,,,,,,,,,,,,,,,,,,,,,,,,,,,,,,,,,206.66204510000534,None,208.1620688199997,None,208.1673509000102,None,208.1673509000102,None,210.07898310001474,None,2,1,2.1295406999997795,210.07898310001474,None,,001,2021_Feb_18_0136,GuessTheSound,2020.2.10,59.97562591552984,
,1,Initial/NoRepeat/Mosquito_B.wav,1,OLD,,,,,,,,,0,24,24,24,,,,,,,,,,,,,,,,,,,,,,,,,,,,,,,,,,,,,,,,,,,,,,,,,,,,,,,,,,,,,,,,,,,,,,,,,,,,,,,,,,,,,,,,,,,,,212.2286847999785,None,213.72861221993807,None,213.7349244999932,None,213.7349244999932,None,215.8788409999106,None,1,1,0.5137959000421688,215.8788409999106,None,,001,2021_Feb_18_0136,GuessTheSound,2020.2.10,59.97562591552984,
,2,Initial/Doubled/Cough_A.wav,3,NEW,,,,,,,,,0,25,25,25,,,,,,,,,,,,,,,,,,,,,,,,,,,,,,,,,,,,,,,,,,,,,,,,,,,,,,,,,,,,,,,,,,,,,,,,,,,,,,,,,,,,,,,,,,,,,216.41181540000252,None,217.9286280399421,None,217.92375059996266,None,217.92375059996266,None,219.62897959991824,None,2,1,0.5553183000301942,219.62897959991824,None,,001,2021_Feb_18_0136,GuessTheSound,2020.2.10,59.97562591552984,
,1,Test/Foils/DialTone.wav,1,OLD,,,,,,,,,0,26,26,26,,,,,,,,,,,,,,,,,,,,,,,,,,,,,,,,,,,,,,,,,,,,,,,,,,,,,,,,,,,,,,,,,,,,,,,,,,,,,,,,,,,,,,,,,,,,,220.21170290000737,None,221.7119212199701,None,221.72059819998685,None,221.72059819998685,None,224.2290093000047,None,1,1,0.2657819000305608,224.2290093000047,None,,001,2021_Feb_18_0136,GuessTheSound,2020.2.10,59.97562591552984,
,2,Test/Foils/Heartbeat.wav,3,NEW,,,,,,,,,0,27,27,27,,,,,,,,,,,,,,,,,,,,,,,,,,,,,,,,,,,,,,,,,,,,,,,,,,,,,,,,,,,,,,,,,,,,,,,,,,,,,,,,,,,,,,,,,,,,,224.51177699991968,None,226.02840653997845,None,226.02646369999275,None,226.02646369999275,None,228.44559050002135,None,2,1,0.2417457998963073,228.44559050002135,None,,001,2021_Feb_18_0136,GuessTheSound,2020.2.10,59.97562591552984,
,2,Initial/Repeat/IceDrop.wav,3,NEW,,,,,,,,,0,28,28,28,,,,,,,,,,,,,,,,,,,,,,,,,,,,,,,,,,,,,,,,,,,,,,,,,,,,,,,,,,,,,,,,,,,,,,,,,,,,,,,,,,,,,,,,,,,,,228.71182289998978,None,230.24495615991762,None,230.2415569999721,None,230.2415569999721,None,232.99533119995613,None,2,1,0.575067300000228,232.99533119995613,None,,001,2021_Feb_18_0136,GuessTheSound,2020.2.10,59.97562591552984,
,2,Bird_C.wav,3,NEW,,,,,,,,,0,29,29,29,,,,,,,,,,,,,,,,,,,,,,,,,,,,,,,,,,,,,,,,,,,,,,,,,,,,,,,,,,,,,,,,,,,,,,,,,,,,,,,,,,,,,,,,,,,,,233.59487679996528,None,235.1116510399617,None,235.11276019993238,None,235.11276019993238,None,236.86175559996627,None,2,1,0.6933549999957904,236.86175559996627,None,,001,2021_Feb_18_0136,GuessTheSound,2020.2.10,59.97562591552984,
,2,Initial/NoRepeat/Puff_A.wav,3,NEW,,,,,,,,,0,30,30,30,,,,,,,,,,,,,,,,,,,,,,,,,,,,,,,,,,,,,,,,,,,,,,,,,,,,,,,,,,,,,,,,,,,,,,,,,,,,,,,,,,,,,,,,,,,,,237.57817320001777,None,239.09497503999154,None,239.093301899964,None,239.093301899964,None,240.79535819997545,None,2,1,0.46629459992982447,240.79535819997545,None,,001,2021_Feb_18_0136,GuessTheSound,2020.2.10,59.97562591552984,
,2,Faucet_B.wav,2,SIMILAR,,,,,,,,,0,31,31,31,,,,,,,,,,,,,,,,,,,,,,,,,,,,,,,,,,,,,,,,,,,,,,,,,,,,,,,,,,,,,,,,,,,,,,,,,,,,,,,,,,,,,,,,,,,,,241.27837569999974,None,242.77829801992047,None,242.7869786999654,None,242.7869786999654,None,245.72849110001698,None,2,1,1.521842100075446,245.72849110001698,None,,001,2021_Feb_18_0136,GuessTheSound,2020.2.10,59.97562591552984,
,2,Initial/NoRepeat/Duck_A.wav,3,NEW,,,,,,,,,0,32,32,32,,,,,,,,,,,,,,,,,,,,,,,,,,,,,,,,,,,,,,,,,,,,,,,,,,,,,,,,,,,,,,,,,,,,,,,,,,,,,,,,,,,,,,,,,,,,,247.2781560999574,None,248.77810801998712,None,248.78559859993402,None,248.78559859993402,None,250.87854449998122,None,2,1,1.2838346000062302,250.87854449998122,None,,001,2021_Feb_18_0136,GuessTheSound,2020.2.10,59.97562591552984,
,2,Initial/Doubled/Laugh_A.wav,3,NEW,,,,,,,,,0,33,33,33,,,,,,,,,,,,,,,,,,,,,,,,,,,,,,,,,,,,,,,,,,,,,,,,,,,,,,,,,,,,,,,,,,,,,,,,,,,,,,,,,,,,,,,,,,,,,252.17813749995548,None,253.69489483993965,None,253.69920959998854,None,253.69920959998854,None,256.3952283000108,None,2,1,0.34810629999265075,256.3952283000108,None,,001,2021_Feb_18_0136,GuessTheSound,2020.2.10,59.97562591552984,
,1,Initial/Doubled/Bubbles_A.wav,1,OLD,,,,,,,,,0,34,34,34,,,,,,,,,,,,,,,,,,,,,,,,,,,,,,,,,,,,,,,,,,,,,,,,,,,,,,,,,,,,,,,,,,,,,,,,,,,,,,,,,,,,,,,,,,,,,256.7614583999384,None,258.26128581995147,None,258.2635317000095,None,258.2635317000095,None,260.67843049997464,None,1,1,0.6566790000069886,260.67843049997464,None,,001,2021_Feb_18_0136,GuessTheSound,2020.2.10,59.97562591552984,
,2,Initial/Doubled/Chicken_A.wav,3,NEW,,,,,,,,,0,35,35,35,,,,,,,,,,,,,,,,,,,,,,,,,,,,,,,,,,,,,,,,,,,,,,,,,,,,,,,,,,,,,,,,,,,,,,,,,,,,,,,,,,,,,,,,,,,,,261.3613009999972,None,262.87809113999833,None,262.8757738999557,None,262.8757738999557,None,264.561647699913,None,2,1,0.7301462000468746,264.561647699913,None,,001,2021_Feb_18_0136,GuessTheSound,2020.2.10,59.97562591552984,
,2,Test/Lures/Guitar_B.wav,3,NEW,,,,,,,,,0,36,36,36,,,,,,,,,,,,,,,,,,,,,,,,,,,,,,,,,,,,,,,,,,,,,,,,,,,,,,,,,,,,,,,,,,,,,,,,,,,,,,,,,,,,,,,,,,,,,265.31136249995325,None,266.82801563995895,None,266.82473170000594,None,266.82473170000594,None,269.14511629997287,None,2,1,0.30353709997143596,269.14511629997287,None,,001,2021_Feb_18_0136,GuessTheSound,2020.2.10,59.97562591552984,
,2,Initial/Repeat/Cello.wav,3,NEW,,,,,,,,,0,37,37,37,,,,,,,,,,,,,,,,,,,,,,,,,,,,,,,,,,,,,,,,,,,,,,,,,,,,,,,,,,,,,,,,,,,,,,,,,,,,,,,,,,,,,,,,,,,,,269.4780144999968,None,270.9946673400002,None,270.99848319997545,None,270.99848319997545,None,273.8934119999176,None,2,1,0.3409028999740258,273.8934119999176,None,,001,2021_Feb_18_0136,GuessTheSound,2020.2.10,59.97562591552984,
,1,Test/Foils/Heartbeat.wav,1,OLD,,,,,,,,,0,38,38,38,,,,,,,,,,,,,,,,,,,,,,,,,,,,,,,,,,,,,,,,,,,,,,,,,,,,,,,,,,,,,,,,,,,,,,,,,,,,,,,,,,,,,,,,,,,,,274.2612698000157,None,275.76119091992734,None,275.76329289993737,None,275.76329289993737,None,278.17824439995456,None,1,1,0.3189769999589771,278.17824439995456,None,,001,2021_Feb_18_0136,GuessTheSound,2020.2.10,59.97562591552984,
,2,Initial/Repeat/Airplane_B.wav,3,NEW,,,,,,,,,0,39,39,39,,,,,,,,,,,,,,,,,,,,,,,,,,,,,,,,,,,,,,,,,,,,,,,,,,,,,,,,,,,,,,,,,,,,,,,,,,,,,,,,,,,,,,,,,,,,,278.5290880999528,None,280.06110083991666,None,280.0617623999715,None,280.0617623999715,None,282.6782031999901,None,2,1,0.38147609995212406,282.6782031999901,None,,001,2021_Feb_18_0136,GuessTheSound,2020.2.10,59.97562591552984,
,2,Cough_D.wav,2,SIMILAR,,,,,,,,,0,40,40,40,,,,,,,,,,,,,,,,,,,,,,,,,,,,,,,,,,,,,,,,,,,,,,,,,,,,,,,,,,,,,,,,,,,,,,,,,,,,,,,,,,,,,,,,,,,,,283.07782170001883,None,284.5944100399968,None,284.5930120999692,None,284.5930120999692,None,286.3615476000123,None,2,1,0.84095189999789,286.3615476000123,None,,001,2021_Feb_18_0136,GuessTheSound,2020.2.10,59.97562591552984,
,2,Bird_D.wav,2,SIMILAR,,,,,,,,,0,41,41,41,,,,,,,,,,,,,,,,,,,,,,,,,,,,,,,,,,,,,,,,,,,,,,,,,,,,,,,,,,,,,,,,,,,,,,,,,,,,,,,,,,,,,,,,,,,,,287.2276307999855,None,288.7442960399669,None,288.73805729998276,None,288.73805729998276,None,290.0779992999742,None,2,1,0.6492823999142274,290.0779992999742,None,,001,2021_Feb_18_0136,GuessTheSound,2020.2.10,59.97562591552984,
,2,Initial/Repeat/Trumpet_B.wav,3,NEW,,,,,,,,,0,42,42,42,,,,,,,,,,,,,,,,,,,,,,,,,,,,,,,,,,,,,,,,,,,,,,,,,,,,,,,,,,,,,,,,,,,,,,,,,,,,,,,,,,,,,,,,,,,,,290.7444652999984,None,292.27771616000683,None,292.2733698999509,None,292.2733698999509,None,294.57784259994514,None,2,1,0.39405660005286336,294.57784259994514,None,,001,2021_Feb_18_0136,GuessTheSound,2020.2.10,59.97562591552984,
,1,Initial/Repeat/IceDrop.wav,1,OLD,,,,,,,,,0,43,43,43,,,,,,,,,,,,,,,,,,,,,,,,,,,,,,,,,,,,,,,,,,,,,,,,,,,,,,,,,,,,,,,,,,,,,,,,,,,,,,,,,,,,,,,,,,,,,294.9942207999993,None,296.4943878199207,None,296.5009851999348,None,296.5009851999348,None,299.2614136999473,None,1,1,0.45225139998365194,299.2614136999473,None,,001,2021_Feb_18_0136,GuessTheSound,2020.2.10,59.97562591552984,
,2,Initial/Repeat/Sneeze_B.wav,3,NEW,,,,,,,,,0,44,44,44,,,,,,,,,,,,,,,,,,,,,,,,,,,,,,,,,,,,,,,,,,,,,,,,,,,,,,,,,,,,,,,,,,,,,,,,,,,,,,,,,,,,,,,,,,,,,299.7443460000213,None,301.2775449599838,None,301.27231469994877,None,301.27231469994877,None,302.4947030999465,None,2,1,1.3685987000353634,302.4947030999465,None,,001,2021_Feb_18_0136,GuessTheSound,2020.2.10,59.97562591552984,
,1,Initial/NoRepeat/Puff_A.wav,1,OLD,,,,,,,,,0,45,45,45,,,,,,,,,,,,,,,,,,,,,,,,,,,,,,,,,,,,,,,,,,,,,,,,,,,,,,,,,,,,,,,,,,,,,,,,,,,,,,,,,,,,,,,,,,,,,303.8943629999412,None,305.3941671200097,None,305.39592559996527,None,305.39592559996527,None,307.09462150000036,None,2,0,0.4212361000245437,307.09462150000036,None,,001,2021_Feb_18_0136,GuessTheSound,2020.2.10,59.97562591552984,
,2,Initial/NoRepeat/Snore_B.wav,3,NEW,,,,,,,,,0,46,46,46,,,,,,,,,,,,,,,,,,,,,,,,,,,,,,,,,,,,,,,,,,,,,,,,,,,,,,,,,,,,,,,,,,,,,,,,,,,,,,,,,,,,,,,,,,,,,307.544323900016,None,309.0607643399155,None,309.05783970002085,None,309.05783970002085,None,311.48086759995203,None,2,1,1.1128287999890745,311.48086759995203,None,,001,2021_Feb_18_0136,GuessTheSound,2020.2.10,59.97562591552984,
,1,Test/Lures/Guitar_B.wav,1,OLD,,,,,,,,,0,47,47,47,,,,,,,,,,,,,,,,,,,,,,,,,,,,,,,,,,,,,,,,,,,,,,,,,,,,,,,,,,,,,,,,,,,,,,,,,,,,,,,,,,,,,,,,,,,,,312.6114291999256,None,314.12788223992106,None,314.1261520999251,None,314.1261520999251,None,316.4448363999836,None,1,1,0.4466233999701217,316.4448363999836,None,,001,2021_Feb_18_0136,GuessTheSound,2020.2.10,59.97562591552984,
,2,Initial/Doubled/Cat_A.wav,3,NEW,,,,,,,,,0,48,48,48,,,,,,,,,,,,,,,,,,,,,,,,,,,,,,,,,,,,,,,,,,,,,,,,,,,,,,,,,,,,,,,,,,,,,,,,,,,,,,,,,,,,,,,,,,,,,316.9134816000005,None,318.44448623997164,None,318.4433292999165,None,318.4433292999165,None,319.86132829997223,None,2,1,0.6743382000131533,319.86132829997223,None,,001,2021_Feb_18_0136,GuessTheSound,2020.2.10,59.97562591552984,
,2,Initial/Repeat/Whistle_A.wav,3,NEW,,,,,,,,,0,49,49,49,,,,,,,,,,,,,,,,,,,,,,,,,,,,,,,,,,,,,,,,,,,,,,,,,,,,,,,,,,,,,,,,,,,,,,,,,,,,,,,,,,,,,,,,,,,,,320.56161729991436,None,322.0778426399222,None,322.0850693999091,None,322.0850693999091,None,323.5779811999528,None,2,1,0.4777470000553876,323.5779811999528,None,,001,2021_Feb_18_0136,GuessTheSound,2020.2.10,59.97562591552984,
,2,Duck_B.wav,2,SIMILAR,,,,,,,,,0,50,50,50,,,,,,,,,,,,,,,,,,,,,,,,,,,,,,,,,,,,,,,,,,,,,,,,,,,,,,,,,,,,,,,,,,,,,,,,,,,,,,,,,,,,,,,,,,,,,324.0786066999426,None,325.5778024199186,None,325.58958569995593,None,325.58958569995593,None,327.29470979992766,None,2,1,0.6943441000767052,327.29470979992766,None,,001,2021_Feb_18_0136,GuessTheSound,2020.2.10,59.97562591552984,
,2,Laugh_D.wav,2,SIMILAR,,,,,,,,,0,51,51,51,,,,,,,,,,,,,,,,,,,,,,,,,,,,,,,,,,,,,,,,,,,,,,,,,,,,,,,,,,,,,,,,,,,,,,,,,,,,,,,,,,,,,,,,,,,,,328.0124000000069,None,329.5443296399201,None,329.54352880001534,None,329.54352880001534,None,332.46127269999124,None,2,1,0.4829040999757126,332.46127269999124,None,,001,2021_Feb_18_0136,GuessTheSound,2020.2.10,59.97562591552984,
,1,Initial/Doubled/Chicken_A.wav,1,OLD,,,,,,,,,0,52,52,52,,,,,,,,,,,,,,,,,,,,,,,,,,,,,,,,,,,,,,,,,,,,,,,,,,,,,,,,,,,,,,,,,,,,,,,,,,,,,,,,,,,,,,,,,,,,,332.9621260999702,None,334.47622791994365,None,334.48260569991544,None,334.48260569991544,None,336.1597690000199,None,1,1,1.239483300014399,336.1597690000199,None,,001,2021_Feb_18_0136,GuessTheSound,2020.2.10,59.97562591552984,
,1,Initial/Repeat/Cello.wav,1,OLD,,,,,,,,,0,53,53,53,,,,,,,,,,,,,,,,,,,,,,,,,,,,,,,,,,,,,,,,,,,,,,,,,,,,,,,,,,,,,,,,,,,,,,,,,,,,,,,,,,,,,,,,,,,,,337.42644810001366,None,338.94345413991255,None,338.9368342999369,None,338.9368342999369,None,341.8279818999581,None,1,1,0.7013224000111222,341.8279818999581,None,,001,2021_Feb_18_0136,GuessTheSound,2020.2.10,59.97562591552984,
,2,Test/Foils/Slurp.wav,3,NEW,,,,,,,,,0,54,54,54,,,,,,,,,,,,,,,,,,,,,,,,,,,,,,,,,,,,,,,,,,,,,,,,,,,,,,,,,,,,,,,,,,,,,,,,,,,,,,,,,,,,,,,,,,,,,342.5455202999292,None,344.0615170399426,None,344.07027069991454,None,344.07027069991454,None,346.4445025000023,None,2,1,0.4585693000117317,346.4445025000023,None,,001,2021_Feb_18_0136,GuessTheSound,2020.2.10,59.97562591552984,
,2,Chomp_B.wav,3,NEW,,,,,,,,,0,55,55,55,,,,,,,,,,,,,,,,,,,,,,,,,,,,,,,,,,,,,,,,,,,,,,,,,,,,,,,,,,,,,,,,,,,,,,,,,,,,,,,,,,,,,,,,,,,,,346.92738000000827,None,348.44415584001695,None,348.45365889999084,None,348.45365889999084,None,351.06109269999433,None,2,1,0.4299014999996871,351.06109269999433,None,,001,2021_Feb_18_0136,GuessTheSound,2020.2.10,59.97562591552984,
,1,Initial/Repeat/Airplane_B.wav,1,OLD,,,,,,,,,0,56,56,56,,,,,,,,,,,,,,,,,,,,,,,,,,,,,,,,,,,,,,,,,,,,,,,,,,,,,,,,,,,,,,,,,,,,,,,,,,,,,,,,,,,,,,,,,,,,,351.5110944999615,None,353.02749813993,None,353.02691030001733,None,353.02691030001733,None,355.64449259999674,None,1,1,0.530009499983862,355.64449259999674,None,,001,2021_Feb_18_0136,GuessTheSound,2020.2.10,59.97562591552984,
,2,Test/Foils/Wind_B.wav,3,NEW,,,,,,,,,0,57,57,57,,,,,,,,,,,,,,,,,,,,,,,,,,,,,,,,,,,,,,,,,,,,,,,,,,,,,,,,,,,,,,,,,,,,,,,,,,,,,,,,,,,,,,,,,,,,,356.19431910000276,None,357.76074890000746,None,357.7596211999189,None,357.7596211999189,None,360.4944253999274,None,2,1,0.44817530002910644,360.4944253999274,None,,001,2021_Feb_18_0136,GuessTheSound,2020.2.10,59.97562591552984,
,2,Trumpet_A.wav,2,SIMILAR,,,,,,,,,0,58,58,58,,,,,,,,,,,,,,,,,,,,,,,,,,,,,,,,,,,,,,,,,,,,,,,,,,,,,,,,,,,,,,,,,,,,,,,,,,,,,,,,,,,,,,,,,,,,,360.9637264999328,None,362.49400333995004,None,362.50014809996355,None,362.50014809996355,None,365.1778823999921,None,2,1,0.5086409000214189,365.1778823999921,None,,001,2021_Feb_18_0136,GuessTheSound,2020.2.10,59.97562591552984,
,2,Initial/Repeat/Cup.wav,3,NEW,,,,,,,,,0,59,59,59,,,,,,,,,,,,,,,,,,,,,,,,,,,,,,,,,,,,,,,,,,,,,,,,,,,,,,,,,,,,,,,,,,,,,,,,,,,,,,,,,,,,,,,,,,,,,365.71111739997286,None,367.2274380400079,None,367.2315845999401,None,367.2315845999401,None,368.5609760999214,None,2,1,0.31185650010593235,368.5609760999214,None,,001,2021_Feb_18_0136,GuessTheSound,2020.2.10,59.97562591552984,
,2,Snore_A.wav,2,SIMILAR,,,,,,,,,0,60,60,60,,,,,,,,,,,,,,,,,,,,,,,,,,,,,,,,,,,,,,,,,,,,,,,,,,,,,,,,,,,,,,,,,,,,,,,,,,,,,,,,,,,,,,,,,,,,,368.8958104000194,None,370.42718414000706,None,370.42451909999363,None,370.42451909999363,None,373.1943448999664,None,2,1,1.9542678000871092,373.1943448999664,None,,001,2021_Feb_18_0136,GuessTheSound,2020.2.10,59.97562591552984,
,2,Test/Foils/Airhorn.wav,3,NEW,,,,,,,,,0,61,61,61,,,,,,,,,,,,,,,,,,,,,,,,,,,,,,,,,,,,,,,,,,,,,,,,,,,,,,,,,,,,,,,,,,,,,,,,,,,,,,,,,,,,,,,,,,,,,375.17720199993346,None,376.71050105995965,None,376.7062765000155,None,376.7062765000155,None,379.2607093999395,None,2,1,0.40801209991332144,379.2607093999395,None,,001,2021_Feb_18_0136,GuessTheSound,2020.2.10,59.97562591552984,
,2,Whistle_B.wav,2,SIMILAR,,,,,,,,,0,62,62,62,,,,,,,,,,,,,,,,,,,,,,,,,,,,,,,,,,,,,,,,,,,,,,,,,,,,,,,,,,,,,,,,,,,,,,,,,,,,,,,,,,,,,,,,,,,,,379.6941095999209,None,381.21110783999325,None,381.2187328999862,None,381.2187328999862,None,383.9440068999538,None,2,1,0.401032300083898,383.9440068999538,None,,001,2021_Feb_18_0136,GuessTheSound,2020.2.10,59.97562591552984,
,1,Initial/Repeat/Sneeze_B.wav,1,OLD,,,,,,,,,0,63,63,63,,,,,,,,,,,,,,,,,,,,,,,,,,,,,,,,,,,,,,,,,,,,,,,,,,,,,,,,,,,,,,,,,,,,,,,,,,,,,,,,,,,,,,,,,,,,,384.3614292999264,None,385.8771752199624,None,385.88815349992365,None,385.88815349992365,None,387.1106696999632,None,1,1,0.9632441001012921,387.1106696999632,None,,001,2021_Feb_18_0136,GuessTheSound,2020.2.10,59.97562591552984,
,1,Initial/Doubled/Cat_A.wav,1,OLD,,,,,,,,,0,64,64,64,,,,,,,,,,,,,,,,,,,,,,,,,,,,,,,,,,,,,,,,,,,,,,,,,,,,,,,,,,,,,,,,,,,,,,,,,,,,,,,,,,,,,,,,,,,,,388.09415419993456,None,389.5938371200115,None,389.60446529998444,None,389.60446529998444,None,391.0279763999861,None,2,0,0.3849589000456035,391.0279763999861,None,,001,2021_Feb_18_0136,GuessTheSound,2020.2.10,59.97562591552984,
,2,Phone_D.wav,3,NEW,,,,,,,,,0,65,65,65,,,,,,,,,,,,,,,,,,,,,,,,,,,,,,,,,,,,,,,,,,,,,,,,,,,,,,,,,,,,,,,,,,,,,,,,,,,,,,,,,,,,,,,,,,,,,391.44735159992706,None,392.97711293997713,None,392.98613580001984,None,392.98613580001984,None,395.52737879997585,None,2,1,0.00836069998331368,395.52737879997585,None,,001,2021_Feb_18_0136,GuessTheSound,2020.2.10,59.97562591552984,
,2,Initial/Repeat/Bagpipe.wav,3,NEW,,,,,,,,,0,66,66,66,,,,,,,,,,,,,,,,,,,,,,,,,,,,,,,,,,,,,,,,,,,,,,,,,,,,,,,,,,,,,,,,,,,,,,,,,,,,,,,,,,,,,,,,,,,,,395.56052289996296,None,397.1102694800124,None,397.10579359997064,None,397.10579359997064,None,399.4775131000206,None,2,1,0.4249229000415653,399.4775131000206,None,,001,2021_Feb_18_0136,GuessTheSound,2020.2.10,59.97562591552984,
,2,Chomp_C.wav,2,SIMILAR,,,,,,,,,0,67,67,67,,,,,,,,,,,,,,,,,,,,,,,,,,,,,,,,,,,,,,,,,,,,,,,,,,,,,,,,,,,,,,,,,,,,,,,,,,,,,,,,,,,,,,,,,,,,,399.9267954999814,None,401.46033155994957,None,401.4582518999232,None,401.4582518999232,None,404.2271923999069,None,1,0,0.6467275999020785,404.2271923999069,None,,001,2021_Feb_18_0136,GuessTheSound,2020.2.10,59.97562591552984,
,1,Test/Foils/Slurp.wav,1,OLD,,,,,,,,,0,68,68,68,,,,,,,,,,,,,,,,,,,,,,,,,,,,,,,,,,,,,,,,,,,,,,,,,,,,,,,,,,,,,,,,,,,,,,,,,,,,,,,,,,,,,,,,,,,,,404.8952854999807,None,406.42692464001016,None,406.42225699999835,None,406.42225699999835,None,408.79398830002174,None,1,1,0.5131699999328703,408.79398830002174,None,,001,2021_Feb_18_0136,GuessTheSound,2020.2.10,59.97562591552984,
,2,Test/Foils/Bowlingpins.wav,3,NEW,,,,,,,,,0,69,69,69,,,,,,,,,,,,,,,,,,,,,,,,,,,,,,,,,,,,,,,,,,,,,,,,,,,,,,,,,,,,,,,,,,,,,,,,,,,,,,,,,,,,,,,,,,,,,409.3274129999336,None,410.8601275599329,None,410.85397649998777,None,410.85397649998777,None,413.29358199995477,None,2,1,0.0659762000432238,413.29358199995477,None,,001,2021_Feb_18_0136,GuessTheSound,2020.2.10,59.97562591552984,
,1,Test/Foils/Wind_B.wav,1,OLD,,,,,,,,,0,70,70,70,,,,,,,,,,,,,,,,,,,,,,,,,,,,,,,,,,,,,,,,,,,,,,,,,,,,,,,,,,,,,,,,,,,,,,,,,,,,,,,,,,,,,,,,,,,,,413.380341699929,None,414.9103900399525,None,414.9073394999141,None,414.9073394999141,None,417.64369459997397,None,2,0,0.35342830000445247,417.64369459997397,None,,001,2021_Feb_18_0136,GuessTheSound,2020.2.10,59.97562591552984,
,2,Initial/NoRepeat/Cow.wav,3,NEW,,,,,,,,,0,71,71,71,,,,,,,,,,,,,,,,,,,,,,,,,,,,,,,,,,,,,,,,,,,,,,,,,,,,,,,,,,,,,,,,,,,,,,,,,,,,,,,,,,,,,,,,,,,,,418.02683079999406,None,419.54346473997,None,419.54864039993845,None,419.54864039993845,None,421.377097300021,None,2,1,0.3313438999466598,421.377097300021,None,,001,2021_Feb_18_0136,GuessTheSound,2020.2.10,59.97562591552984,
,2,Initial/Doubled/Siren_A.wav,3,NEW,,,,,,,,,0,72,72,72,,,,,,,,,,,,,,,,,,,,,,,,,,,,,,,,,,,,,,,,,,,,,,,,,,,,,,,,,,,,,,,,,,,,,,,,,,,,,,,,,,,,,,,,,,,,,421.7266375999898,None,423.24352803993975,None,423.2510020999471,None,423.2510020999471,None,426.0434925999725,None,1,0,0.5160242000129074,426.0434925999725,None,,001,2021_Feb_18_0136,GuessTheSound,2020.2.10,59.97562591552984,
,2,Initial/Repeat/Crow_B.wav,3,NEW,,,,,,,,,0,73,73,73,,,,,,,,,,,,,,,,,,,,,,,,,,,,,,,,,,,,,,,,,,,,,,,,,,,,,,,,,,,,,,,,,,,,,,,,,,,,,,,,,,,,,,,,,,,,,426.57717840000987,None,428.0934304399882,None,428.1032157000154,None,428.1032157000154,None,430.17697929998394,None,2,1,0.6568216999294236,430.17697929998394,None,,001,2021_Feb_18_0136,GuessTheSound,2020.2.10,59.97562591552984,
,1,Initial/Repeat/Bagpipe.wav,1,OLD,,,,,,,,,0,74,74,74,,,,,,,,,,,,,,,,,,,,,,,,,,,,,,,,,,,,,,,,,,,,,,,,,,,,,,,,,,,,,,,,,,,,,,,,,,,,,,,,,,,,,,,,,,,,,430.8601937999483,None,432.3767171400134,None,432.37473309994675,None,432.37473309994675,None,434.74352679995354,None,1,1,0.29847020003944635,434.74352679995354,None,,001,2021_Feb_18_0136,GuessTheSound,2020.2.10,59.97562591552984,
,1,Initial/Repeat/Cup.wav,1,OLD,,,,,,,,,0,75,75,75,,,,,,,,,,,,,,,,,,,,,,,,,,,,,,,,,,,,,,,,,,,,,,,,,,,,,,,,,,,,,,,,,,,,,,,,,,,,,,,,,,,,,,,,,,,,,435.06056979997084,None,436.55991501992105,None,436.56991680001374,None,436.56991680001374,None,437.8935720999725,None,1,1,0.7940747999818996,437.8935720999725,None,,001,2021_Feb_18_0136,GuessTheSound,2020.2.10,59.97562591552984,
,2,Test/Foils/Bullfrog.wav,3,NEW,,,,,,,,,0,76,76,76,,,,,,,,,,,,,,,,,,,,,,,,,,,,,,,,,,,,,,,,,,,,,,,,,,,,,,,,,,,,,,,,,,,,,,,,,,,,,,,,,,,,,,,,,,,,,438.71141079999506,None,440.2431713400176,None,440.25175479997415,None,440.25175479997415,None,443.1605527999345,None,2,1,0.38260609994176775,443.1605527999345,None,,001,2021_Feb_18_0136,GuessTheSound,2020.2.10,59.97562591552984,
,2,Initial/Repeat/Phone_A.wav,2,SIMILAR,,,,,,,,,0,77,77,77,,,,,,,,,,,,,,,,,,,,,,,,,,,,,,,,,,,,,,,,,,,,,,,,,,,,,,,,,,,,,,,,,,,,,,,,,,,,,,,,,,,,,,,,,,,,,443.56038869998883,None,445.1098569800146,None,445.107627099962,None,445.107627099962,None,448.0601537999464,None,2,1,1.8825496999779716,448.0601537999464,None,,001,2021_Feb_18_0136,GuessTheSound,2020.2.10,59.97562591552984,
,2,Initial/Doubled/HairDryer_A.wav,3,NEW,,,,,,,,,0,78,78,78,,,,,,,,,,,,,,,,,,,,,,,,,,,,,,,,,,,,,,,,,,,,,,,,,,,,,,,,,,,,,,,,,,,,,,,,,,,,,,,,,,,,,,,,,,,,,449.9600376000162,None,451.47652943995786,None,451.48652299994137,None,451.48652299994137,None,454.05996639991645,None,2,1,0.6986238999525085,454.05996639991645,None,,001,2021_Feb_18_0136,GuessTheSound,2020.2.10,59.97562591552984,
,1,Test/Foils/Airhorn.wav,1,OLD,,,,,,,,,0,79,79,79,,,,,,,,,,,,,,,,,,,,,,,,,,,,,,,,,,,,,,,,,,,,,,,,,,,,,,,,,,,,,,,,,,,,,,,,,,,,,,,,,,,,,,,,,,,,,454.77631290000863,None,456.29299913991713,None,456.2909148000181,None,456.2909148000181,None,458.84323090000544,None,1,1,0.3380409999517724,458.84323090000544,None,,001,2021_Feb_18_0136,GuessTheSound,2020.2.10,59.97562591552984,
,2,Initial/Doubled/Cuckoo_A.wav,3,NEW,,,,,,,,,0,80,80,80,,,,,,,,,,,,,,,,,,,,,,,,,,,,,,,,,,,,,,,,,,,,,,,,,,,,,,,,,,,,,,,,,,,,,,,,,,,,,,,,,,,,,,,,,,,,,459.2097364999354,None,460.7262225399493,None,460.73112599994056,None,460.73112599994056,None,463.22664199990686,None,2,1,0.3705596999498084,463.22664199990686,None,,001,2021_Feb_18_0136,GuessTheSound,2020.2.10,59.97562591552984,
,,,,,,,,,,,,,,,,,,,,,,,,,,,,,,,,,,,,,,,,,,,,,,,,,,,,,,,,,,,,,,,,,,,,,,,,,,,,,,,,,,,,,,,,,,,,,,,,,,,,,,,,,,,,,463.6261101999553,None,465.14287293998063,None,465.1387828999432,None,465.1387828999432,None,,,,,,,,,,,,,,
