File,Correct,SoundFile,Correct2,Type,trials_2.thisRepN,trials_2.thisTrialN,trials_2.thisN,trials_2.thisIndex,PracticeTrials.thisRepN,PracticeTrials.thisTrialN,PracticeTrials.thisN,PracticeTrials.thisIndex,trials.thisRepN,trials.thisTrialN,trials.thisN,trials.thisIndex,InstructionTxt.started,InstructionTxt.stopped,WelcomContinue.started,WelcomContinue.stopped,VolumeBeginTxt.started,VolumeBeginTxt.stopped,VolumeContinueKey.keys,VolumeContinueKey.rt,VolumeContinueKey.started,VolumeContinueKey.stopped,text.started,text.stopped,Music.started,Music.stopped,AdjustContinue.started,AdjustContinue.stopped,HeadphoneCheckBeing.started,HeadphoneCheckBeing.stopped,HeadphoneContinue.started,HeadphoneContinue.stopped,HeadphoneContinueKey.keys,HeadphoneContinueKey.rt,HeadphoneContinueKey.started,HeadphoneContinueKey.stopped,CheckSound.started,CheckSound.stopped,QuestionTxt.started,QuestionTxt.stopped,CheckTrial.started,CheckTrial.stopped,CrossHeadphone.started,CrossHeadphone.stopped,CheckResp.keys,CheckResp.corr,CheckResp.rt,CheckResp.started,CheckResp.stopped,FeedbackTxt.started,FeedbackTxt.stopped,WelcomeTxt1.started,WelcomeTxt1.stopped,ContinueKey1.started,ContinueKey1.stopped,ContinueResp.keys,ContinueResp.rt,ContinueResp.started,ContinueResp.stopped,Welcome2Txt.started,Welcome2Txt.stopped,Wel2ContinueKey.keys,Wel2ContinueKey.rt,Wel2ContinueKey.started,Wel2ContinueKey.stopped,Continue2.started,Continue2.stopped,InstructionTxt2.started,InstructionTxt2.stopped,WelcomeContinue2.started,WelcomeContinue2.stopped,WelcomeContinueKey2.keys,WelcomeContinueKey2.rt,WelcomeContinueKey2.started,WelcomeContinueKey2.stopped,TrialNumber.started,TrialNumber.stopped,PracticeSound.started,PracticeSound.stopped,PracticeCross.started,PracticeCross.stopped,Practice_resp.keys,Practice_resp.corr,Practice_resp.rt,Practice_resp.started,Practice_resp.stopped,PracticeMssg.started,PracticeMssg.stopped,FeedbackCross.started,FeedbackCross.stopped,Continue.started,Continue.stopped,Options.started,Options.stopped,FeedbackMssg.started,FeedbackMssg.stopped,StartTxt.started,StartTxt.stopped,StartTast.keys,StartTast.rt,StartTast.started,StartTast.stopped,ContinueStart.started,ContinueStart.stopped,no_3.started,no_3.stopped,TargetSound.started,TargetSound.stopped,Cross.started,Cross.stopped,ItemNumber.started,ItemNumber.stopped,MSTQuestion.started,MSTQuestion.stopped,MSTResp.keys,MSTResp.corr,MSTResp.rt,MSTResp.started,MSTResp.stopped,participant,session,date,expName,psychopyVersion,frameRate,
,,,,,,,,,,,,,,,,,11.074505500029773,None,11.074505500029773,None,13.992050700006075,None,space,0.6935612000524998,13.992050700006075,None,,,,,,,,,,,,,,,,,,,,,,,,,,,,,,,,,,,,,,,,,,,,,,,,,,,,,,,,,,,,,,,,,,,,,,,,,,,,,,,,,,,,,,,,,,,,,,,,,,,001,2021_Feb_20_1458,GuessTheSound,2020.2.10,60.029954951983775,
,,,,,,,,,,,,,,,,,,,,,,,,,,,14.728025300079025,None,14.725110640074128,None,14.728025300079025,None,15.375856200000271,None,15.375856200000271,None,space,1.1381454999791458,15.375856200000271,None,,,,,,,,,,,,,,,,,,,,,,,,,,,,,,,,,,,,,,,,,,,,,,,,,,,,,,,,,,,,,,,,,,,,,,,,,,,,,,,,,,,,,001,2021_Feb_20_1458,GuessTheSound,2020.2.10,60.029954951983775,
Headphone/t1_2.wav,1,,,,0,0,0,1,,,,,,,,,,,,,,,,,,,,,,,,,,,,,,,,,16.608622050029226,None,21.124934500083327,None,16.602565100067295,21.141804400016554,16.602565100067295,21.141804400016554,3,0,0.9409325000597164,21.124934500083327,None,22.09146980009973,None,,,,,,,,,,,,,,,,,,,,,,,,,,,,,,,,,,,,,,,,,,,,,,,,,,,,,,,,,,,,,,,,,,,,,,001,2021_Feb_20_1458,GuessTheSound,2020.2.10,60.029954951983775,
Headphone/t2_2.wav,2,,,,0,1,1,3,,,,,,,,,,,,,,,,,,,,,,,,,,,,,,,,,23.107721740053968,None,27.624812200083397,None,23.098809700109996,27.641558600007556,23.098809700109996,27.641558600007556,3,0,0.5088989000068977,27.624812200083397,None,28.157752700033598,None,,,,,,,,,,,,,,,,,,,,,,,,,,,,,,,,,,,,,,,,,,,,,,,,,,,,,,,,,,,,,,,,,,,,,,001,2021_Feb_20_1458,GuessTheSound,2020.2.10,60.029954951983775,
Headphone/t3_1.wav,3,,,,0,2,2,4,,,,,,,,,,,,,,,,,,,,,,,,,,,,,,,,,29.174645839980805,None,33.69167160009965,None,29.16551070008427,33.708261000108905,29.16551070008427,33.708261000108905,2,0,0.5822457999456674,33.69167160009965,None,34.29153960000258,None,,,,,,,,,,,,,,,,,,,,,,,,,,,,,,,,,,,,,,,,,,,,,,,,,,,,,,,,,,,,,,,,,,,,,,001,2021_Feb_20_1458,GuessTheSound,2020.2.10,60.029954951983775,
Headphone/t2_1.wav,2,,,,0,3,3,2,,,,,,,,,,,,,,,,,,,,,,,,,,,,,,,,,35.308058240008535,None,39.82462330011185,None,35.29925140005071,39.84132170001976,35.29925140005071,39.84132170001976,1,0,0.7512447000481188,39.82462330011185,None,40.59121690003667,None,,,,,,,,,,,,,,,,,,,,,,,,,,,,,,,,,,,,,,,,,,,,,,,,,,,,,,,,,,,,,,,,,,,,,,001,2021_Feb_20_1458,GuessTheSound,2020.2.10,60.029954951983775,
Headphone/t3_2.wav,3,,,,0,4,4,5,,,,,,,,,,,,,,,,,,,,,,,,,,,,,,,,,41.62476990998257,None,46.139905300107785,None,41.619982900097966,46.15642030001618,41.619982900097966,46.15642030001618,3,1,0.8564118000213057,46.139905300107785,None,47.036631200113334,None,,,,,,,,,,,,,,,,,,,,,,,,,,,,,,,,,,,,,,,,,,,,,,,,,,,,,,,,,,,,,,,,,,,,,,001,2021_Feb_20_1458,GuessTheSound,2020.2.10,60.029954951983775,
Headphone/t1_1.wav,1,,,,0,5,5,0,,,,,,,,,,,,,,,,,,,,,,,,,,,,,,,,,48.056897340016434,None,52.574553100042976,None,48.04598650010303,52.59145270008594,48.04598650010303,52.59145270008594,2,0,0.49364859994966537,52.574553100042976,None,53.09087690000888,None,,,,,,,,,,,,,,,,,,,,,,,,,,,,,,,,,,,,,,,,,,,,,,,,,,,,,,,,,,,,,,,,,,,,,,001,2021_Feb_20_1458,GuessTheSound,2020.2.10,60.029954951983775,
,,,,,,,,,,,,,,,,,,,,,,,,,,,,,,,,,,,,,,,,,,,,,,,,,,,,,,,,54.09255710011348,None,54.09255710011348,None,space,2.114993999945,54.09255710011348,None,,,,,,,,,,,,,,,,,,,,,,,,,,,,,,,,,,,,,,,,,,,,,,,,,,,,,,,,,,,,,,001,2021_Feb_20_1458,GuessTheSound,2020.2.10,60.029954951983775,
,,,,,,,,,,,,,,,,,,,,,,,,,,,,,,,,,,,,,,,,,,,,,,,,,,,,,,,,,,,,,,,,56.22506510000676,None,space,1.1191274999873713,56.22506510000676,None,,,,,,,,,,,,,,,,,,,,,,,,,,,,,,,,,,,,,,,,,,,,,,,,,,,,,,,,001,2021_Feb_20_1458,GuessTheSound,2020.2.10,60.029954951983775,
,,,,,,,,,,,,,,,,,,,,,,,,,,,,,,,,,,,,,,,,,,,,,,,,,,,,,,,,,,,,,,,,,,,,,,56.22506510000676,None,57.374672200065106,None,57.374672200065106,None,space,1.0151394000276923,57.374672200065106,None,,,,,,,,,,,,,,,,,,,,,,,,,,,,,,,,,,,,,,,,,,,,,,001,2021_Feb_20_1458,GuessTheSound,2020.2.10,60.029954951983775,
,,Practice/Seagull_A.wav,3,NEW,,,,,0,0,0,0,,,,,,,,,,,,,,,,,,,,,,,,,,,,,,,,,,,,,,,,,,,,,,,,,,,,,,,,,,,,,,,,,,,,58.47490660008043,None,58.47512185003143,None,58.47490660008043,None,3,1,1.161609899951145,60.74963710003067,None,60.74963710003067,None,60.74963710003067,None,60.74963710003067,None,60.74963710003067,None,61.94370720000006,None,,,,,,,,,,,,,,,,,,,,,,,,,001,2021_Feb_20_1458,GuessTheSound,2020.2.10,60.029954951983775,
,,Practice/Skid_B.wav,3,NEW,,,,,0,1,1,1,,,,,,,,,,,,,,,,,,,,,,,,,,,,,,,,,,,,,,,,,,,,,,,,,,,,,,,,,,,,,,,,,,,,62.954426100011915,None,62.959498740057455,None,62.954426100011915,None,3,1,0.34966479998547584,65.05795640009455,None,65.05795640009455,None,65.05795640009455,None,65.05795640009455,None,65.05795640009455,None,65.42417590005789,None,,,,,,,,,,,,,,,,,,,,,,,,,001,2021_Feb_20_1458,GuessTheSound,2020.2.10,60.029954951983775,
,,Practice/Seagull_A.wav,1,OLD,,,,,0,2,2,2,,,,,,,,,,,,,,,,,,,,,,,,,,,,,,,,,,,,,,,,,,,,,,,,,,,,,,,,,,,,,,,,,,,,66.42408540006727,None,66.4240011700429,None,66.42408540006727,None,1,1,0.4278976999921724,68.69695300003514,None,68.69695300003514,None,68.69695300003514,None,68.69695300003514,None,68.69695300003514,None,69.14074990001973,None,,,,,,,,,,,,,,,,,,,,,,,,,001,2021_Feb_20_1458,GuessTheSound,2020.2.10,60.029954951983775,
,,Practice/Gargle_A.wav,3,NEW,,,,,0,3,3,3,,,,,,,,,,,,,,,,,,,,,,,,,,,,,,,,,,,,,,,,,,,,,,,,,,,,,,,,,,,,,,,,,,,,70.14996940002311,None,70.15719464004505,None,70.14996940002311,None,3,1,0.8490657999645919,72.42456430010498,None,72.42456430010498,None,72.42456430010498,None,72.42456430010498,None,72.42456430010498,None,73.29096430004574,None,,,,,,,,,,,,,,,,,,,,,,,,,001,2021_Feb_20_1458,GuessTheSound,2020.2.10,60.029954951983775,
,,Practice/Gargle_B.wav,2,SIMILAR,,,,,0,4,4,4,,,,,,,,,,,,,,,,,,,,,,,,,,,,,,,,,,,,,,,,,,,,,,,,,,,,,,,,,,,,,,,,,,,,74.29889880004339,76.34079630009364,74.30756024005822,None,74.29889880004339,76.34079630009364,2,1,0.5375958000076935,76.36050940002315,None,76.36050940002315,None,76.36050940002315,None,76.36050940002315,None,76.36050940002315,None,76.92387800000142,None,,,,,,,,,,,,,,,,,,,,,,,,,001,2021_Feb_20_1458,GuessTheSound,2020.2.10,60.029954951983775,
,,,,,,,,,,,,,,,,,,,,,,,,,,,,,,,,,,,,,,,,,,,,,,,,,,,,,,,,,,,,,,,,,,,,,,,,,,,,,,,,,,,,,,,,,,,,,,,,,,,,,77.92450380010996,None,space,2.099243500037119,77.92450380010996,None,,,,,,,,,,,,,,,,,,,001,2021_Feb_20_1458,GuessTheSound,2020.2.10,60.029954951983775,
,,Initial/NoRepeat/Elephant_A.wav,3,NEW,,,,,,,,,0,0,0,0,,,,,,,,,,,,,,,,,,,,,,,,,,,,,,,,,,,,,,,,,,,,,,,,,,,,,,,,,,,,,,,,,,,,,,,,,,,,,,,,,,,,,,,,,,,77.92450380010996,None,80.10339040006511,None,81.5740269400645,None,81.5657856001053,None,81.5657856001053,None,84.62452240008861,None,3,1,3.505512100062333,84.62452240008861,None,,001,2021_Feb_20_1458,GuessTheSound,2020.2.10,60.029954951983775,
,,Initial/Doubled/Coin_A.wav,3,NEW,,,,,,,,,0,1,1,1,,,,,,,,,,,,,,,,,,,,,,,,,,,,,,,,,,,,,,,,,,,,,,,,,,,,,,,,,,,,,,,,,,,,,,,,,,,,,,,,,,,,,,,,,,,,,88.15711700008251,None,89.65794017009902,None,89.66513990005478,None,89.66513990005478,None,91.27481020009145,None,3,1,1.0780483999988064,91.27481020009145,None,,001,2021_Feb_20_1458,GuessTheSound,2020.2.10,60.029954951983775,
,,Initial/Doubled/Cuckoo_A.wav,3,NEW,,,,,,,,,0,2,2,2,,,,,,,,,,,,,,,,,,,,,,,,,,,,,,,,,,,,,,,,,,,,,,,,,,,,,,,,,,,,,,,,,,,,,,,,,,,,,,,,,,,,,,,,,,,,,92.37372050003614,None,93.87395476999227,None,93.87977460003458,None,93.87977460003458,None,96.37457300000824,None,3,1,0.5582787999883294,96.37457300000824,None,,001,2021_Feb_20_1458,GuessTheSound,2020.2.10,60.029954951983775,
,,Initial/Doubled/Piano_A.wav,3,NEW,,,,,,,,,0,3,3,3,,,,,,,,,,,,,,,,,,,,,,,,,,,,,,,,,,,,,,,,,,,,,,,,,,,,,,,,,,,,,,,,,,,,,,,,,,,,,,,,,,,,,,,,,,,,,96.95872590004001,None,98.4904412400443,None,98.48243540001567,None,98.48243540001567,None,101.35830650001299,None,3,1,0.3376962000038475,101.35830650001299,None,,001,2021_Feb_20_1458,GuessTheSound,2020.2.10,60.029954951983775,
,,Initial/Doubled/Siren_A.wav,3,NEW,,,,,,,,,0,4,4,4,,,,,,,,,,,,,,,,,,,,,,,,,,,,,,,,,,,,,,,,,,,,,,,,,,,,,,,,,,,,,,,,,,,,,,,,,,,,,,,,,,,,,,,,,,,,,101.7238961000694,None,103.24028243999928,None,103.2331026000902,None,103.2331026000902,None,106.02487780002411,None,3,1,0.37296469998545945,106.02487780002411,None,,001,2021_Feb_20_1458,GuessTheSound,2020.2.10,60.029954951983775,
,,Test/Foils/Bird.wav,3,NEW,,,,,,,,,0,5,5,5,,,,,,,,,,,,,,,,,,,,,,,,,,,,,,,,,,,,,,,,,,,,,,,,,,,,,,,,,,,,,,,,,,,,,,,,,,,,,,,,,,,,,,,,,,,,,106.42359860008582,None,107.940410039993,None,107.93494540010579,None,107.93494540010579,None,110.64145980007015,None,3,1,0.3988570000510663,110.64145980007015,None,,001,2021_Feb_20_1458,GuessTheSound,2020.2.10,60.029954951983775,
,,Initial/Doubled/Cat_A.wav,3,NEW,,,,,,,,,0,6,6,6,,,,,,,,,,,,,,,,,,,,,,,,,,,,,,,,,,,,,,,,,,,,,,,,,,,,,,,,,,,,,,,,,,,,,,,,,,,,,,,,,,,,,,,,,,,,,111.056972600054,None,112.57412274009548,None,112.56481140002143,None,112.56481140002143,None,113.99140310008079,None,3,1,0.5884752999991179,113.99140310008079,None,,001,2021_Feb_20_1458,GuessTheSound,2020.2.10,60.029954951983775,
,,Initial/NoRepeat/Baby_B.wav,3,NEW,,,,,,,,,0,7,7,7,,,,,,,,,,,,,,,,,,,,,,,,,,,,,,,,,,,,,,,,,,,,,,,,,,,,,,,,,,,,,,,,,,,,,,,,,,,,,,,,,,,,,,,,,,,,,114.60686290008016,None,116.12388294006232,None,116.12188240000978,None,116.12188240000978,None,119.1581325000152,None,3,1,0.3132875000592321,119.1581325000152,None,,001,2021_Feb_20_1458,GuessTheSound,2020.2.10,60.029954951983775,
,,Initial/Doubled/Writing_A.wav,3,NEW,,,,,,,,,0,8,8,8,,,,,,,,,,,,,,,,,,,,,,,,,,,,,,,,,,,,,,,,,,,,,,,,,,,,,,,,,,,,,,,,,,,,,,,,,,,,,,,,,,,,,,,,,,,,,119.49074230005499,None,121.006959640095,None,121.0135521000484,None,121.0135521000484,None,123.70760980003979,None,3,1,0.3934222999960184,123.70760980003979,None,,001,2021_Feb_20_1458,GuessTheSound,2020.2.10,60.029954951983775,
,,Piano_B.wav,2,SIMILAR,,,,,,,,,0,9,9,9,,,,,,,,,,,,,,,,,,,,,,,,,,,,,,,,,,,,,,,,,,,,,,,,,,,,,,,,,,,,,,,,,,,,,,,,,,,,,,,,,,,,,,,,,,,,,124.12337830010802,None,125.6400422400562,None,125.63310390000697,None,125.63310390000697,None,128.29115720000118,None,2,1,0.7030508000170812,128.29115720000118,None,,001,2021_Feb_20_1458,GuessTheSound,2020.2.10,60.029954951983775,
,,Initial/NoRepeat/Sleighbells_B.wav,3,NEW,,,,,,,,,0,10,10,10,,,,,,,,,,,,,,,,,,,,,,,,,,,,,,,,,,,,,,,,,,,,,,,,,,,,,,,,,,,,,,,,,,,,,,,,,,,,,,,,,,,,,,,,,,,,,129.0234789000824,None,130.523533970071,None,130.5300288000144,None,130.5300288000144,None,132.95758140005637,None,3,1,0.441642599995248,132.95758140005637,None,,001,2021_Feb_20_1458,GuessTheSound,2020.2.10,60.029954951983775,
,,Test/Foils/Typing.wav,3,NEW,,,,,,,,,0,11,11,11,,,,,,,,,,,,,,,,,,,,,,,,,,,,,,,,,,,,,,,,,,,,,,,,,,,,,,,,,,,,,,,,,,,,,,,,,,,,,,,,,,,,,,,,,,,,,133.42324670008384,None,134.92331697007177,None,134.93067180004437,None,134.93067180004437,None,137.7912221000297,None,3,1,0.9799338999437168,137.7912221000297,None,,001,2021_Feb_20_1458,GuessTheSound,2020.2.10,60.029954951983775,
,,Initial/Repeat/Pour.wav,3,NEW,,,,,,,,,0,12,12,12,,,,,,,,,,,,,,,,,,,,,,,,,,,,,,,,,,,,,,,,,,,,,,,,,,,,,,,,,,,,,,,,,,,,,,,,,,,,,,,,,,,,,,,,,,,,,138.79023280006368,None,140.29021167005413,None,140.29577450000215,None,140.29577450000215,None,142.8743428000016,None,3,1,0.8053610000060871,142.8743428000016,None,,001,2021_Feb_20_1458,GuessTheSound,2020.2.10,60.029954951983775,
,,Initial/Doubled/HairDryer_A.wav,3,NEW,,,,,,,,,0,13,13,13,,,,,,,,,,,,,,,,,,,,,,,,,,,,,,,,,,,,,,,,,,,,,,,,,,,,,,,,,,,,,,,,,,,,,,,,,,,,,,,,,,,,,,,,,,,,,143.70642500009853,None,145.223113640002,None,145.21410840004683,None,145.21410840004683,None,147.7909608000191,None,3,1,0.33495339995715767,147.7909608000191,None,,001,2021_Feb_20_1458,GuessTheSound,2020.2.10,60.029954951983775,
,,Initial/Doubled/Cuckoo_A.wav,1,OLD,,,,,,,,,0,14,14,14,,,,,,,,,,,,,,,,,,,,,,,,,,,,,,,,,,,,,,,,,,,,,,,,,,,,,,,,,,,,,,,,,,,,,,,,,,,,,,,,,,,,,,,,,,,,,148.14034310006537,None,149.6570274400525,None,149.6524760000175,None,149.6524760000175,None,152.14047180011403,None,1,1,0.3974275999935344,152.14047180011403,None,,001,2021_Feb_20_1458,GuessTheSound,2020.2.10,60.029954951983775,
,,Initial/Doubled/Chime_A.wav,3,NEW,,,,,,,,,0,15,15,15,,,,,,,,,,,,,,,,,,,,,,,,,,,,,,,,,,,,,,,,,,,,,,,,,,,,,,,,,,,,,,,,,,,,,,,,,,,,,,,,,,,,,,,,,,,,,152.5563504000893,None,154.08988881004043,None,154.0806287000887,None,154.0806287000887,None,156.90731410006993,None,3,1,0.36574390006717294,156.90731410006993,None,,001,2021_Feb_20_1458,GuessTheSound,2020.2.10,60.029954951983775,
,,Initial/NoRepeat/Fireworks.wav,3,NEW,,,,,,,,,0,16,16,16,,,,,,,,,,,,,,,,,,,,,,,,,,,,,,,,,,,,,,,,,,,,,,,,,,,,,,,,,,,,,,,,,,,,,,,,,,,,,,,,,,,,,,,,,,,,,157.28964280011132,None,158.78980646999554,None,158.79657060001045,None,158.79657060001045,None,161.7571732000215,None,3,1,0.5904426999622956,161.7571732000215,None,,001,2021_Feb_20_1458,GuessTheSound,2020.2.10,60.029954951983775,
,,Baby_A.wav,2,SIMILAR,,,,,,,,,0,17,17,17,,,,,,,,,,,,,,,,,,,,,,,,,,,,,,,,,,,,,,,,,,,,,,,,,,,,,,,,,,,,,,,,,,,,,,,,,,,,,,,,,,,,,,,,,,,,,162.3730461000232,None,163.87323357008864,None,163.87303850008175,None,163.87303850008175,None,166.47372520004865,None,2,1,0.6644527999451384,166.47372520004865,None,,001,2021_Feb_20_1458,GuessTheSound,2020.2.10,60.029954951983775,
,,Test/Foils/DialTone.wav,3,NEW,,,,,,,,,0,18,18,18,,,,,,,,,,,,,,,,,,,,,,,,,,,,,,,,,,,,,,,,,,,,,,,,,,,,,,,,,,,,,,,,,,,,,,,,,,,,,,,,,,,,,,,,,,,,,167.15625350002665,None,168.6729512399994,None,168.66677720006555,None,168.66677720006555,None,171.1742985000601,None,3,1,0.3554553999565542,171.1742985000601,None,,001,2021_Feb_20_1458,GuessTheSound,2020.2.10,60.029954951983775,
,,Siren_B.wav,2,SIMILAR,,,,,,,,,0,19,19,19,,,,,,,,,,,,,,,,,,,,,,,,,,,,,,,,,,,,,,,,,,,,,,,,,,,,,,,,,,,,,,,,,,,,,,,,,,,,,,,,,,,,,,,,,,,,,171.55630340008065,None,173.07300893999638,None,173.0642656000564,None,173.0642656000564,None,176.12364730006084,None,2,1,0.47763450001366436,176.12364730006084,None,,001,2021_Feb_20_1458,GuessTheSound,2020.2.10,60.029954951983775,
,,Initial/Repeat/Sneeze_B.wav,3,NEW,,,,,,,,,0,20,20,20,,,,,,,,,,,,,,,,,,,,,,,,,,,,,,,,,,,,,,,,,,,,,,,,,,,,,,,,,,,,,,,,,,,,,,,,,,,,,,,,,,,,,,,,,,,,,176.62308580009267,None,178.13984614007643,None,178.1301650000969,None,178.1301650000969,None,179.35755550011527,None,3,1,0.5244787000119686,179.35755550011527,None,,001,2021_Feb_20_1458,GuessTheSound,2020.2.10,60.029954951983775,
,,Bird_C.wav,2,SIMILAR,,,,,,,,,0,21,21,21,,,,,,,,,,,,,,,,,,,,,,,,,,,,,,,,,,,,,,,,,,,,,,,,,,,,,,,,,,,,,,,,,,,,,,,,,,,,,,,,,,,,,,,,,,,,,179.90655850002076,None,181.42313024008183,None,181.42534390010405,None,181.42534390010405,None,183.1738923001103,None,3,0,0.6799308999907225,183.1738923001103,None,,001,2021_Feb_20_1458,GuessTheSound,2020.2.10,60.029954951983775,
,,Pour_D.wav,2,SIMILAR,,,,,,,,,0,22,22,22,,,,,,,,,,,,,,,,,,,,,,,,,,,,,,,,,,,,,,,,,,,,,,,,,,,,,,,,,,,,,,,,,,,,,,,,,,,,,,,,,,,,,,,,,,,,,183.8727729000384,None,185.38937934001444,None,185.38939960009884,None,185.38939960009884,None,188.44060750002973,None,2,1,0.5551019000122324,188.44060750002973,None,,001,2021_Feb_20_1458,GuessTheSound,2020.2.10,60.029954951983775,
,,Test/Foils/Camera.wav,3,NEW,,,,,,,,,0,23,23,23,,,,,,,,,,,,,,,,,,,,,,,,,,,,,,,,,,,,,,,,,,,,,,,,,,,,,,,,,,,,,,,,,,,,,,,,,,,,,,,,,,,,,,,,,,,,,189.02314030006528,None,190.5227262700908,None,190.52787820005324,None,190.52787820005324,None,191.49032430001535,None,3,1,0.5596498999511823,191.49032430001535,None,,001,2021_Feb_20_1458,GuessTheSound,2020.2.10,60.029954951983775,
,,Initial/Doubled/Writing_A.wav,1,OLD,,,,,,,,,0,24,24,24,,,,,,,,,,,,,,,,,,,,,,,,,,,,,,,,,,,,,,,,,,,,,,,,,,,,,,,,,,,,,,,,,,,,,,,,,,,,,,,,,,,,,,,,,,,,,192.0729608000256,None,193.57279167005328,None,193.5727109001018,None,193.5727109001018,None,196.2736675000051,None,1,1,0.468689400004223,196.2736675000051,None,,001,2021_Feb_20_1458,GuessTheSound,2020.2.10,60.029954951983775,
,,Test/Foils/Typing.wav,1,OLD,,,,,,,,,0,25,25,25,,,,,,,,,,,,,,,,,,,,,,,,,,,,,,,,,,,,,,,,,,,,,,,,,,,,,,,,,,,,,,,,,,,,,,,,,,,,,,,,,,,,,,,,,,,,,196.77266760007478,None,198.27285176999868,None,198.2728396001039,None,198.2728396001039,None,201.14000370004214,None,3,0,0.5736431999830529,201.14000370004214,None,,001,2021_Feb_20_1458,GuessTheSound,2020.2.10,60.029954951983775,
,,Initial/NoRepeat/Snore_B.wav,3,NEW,,,,,,,,,0,26,26,26,,,,,,,,,,,,,,,,,,,,,,,,,,,,,,,,,,,,,,,,,,,,,,,,,,,,,,,,,,,,,,,,,,,,,,,,,,,,,,,,,,,,,,,,,,,,,201.7393374000676,None,203.256431940035,None,203.25623150006868,None,203.25623150006868,None,205.67381060007028,None,3,1,0.3589794998988509,205.67381060007028,None,,001,2021_Feb_20_1458,GuessTheSound,2020.2.10,60.029954951983775,
,,Baby_C.wav,2,SIMILAR,,,,,,,,,0,27,27,27,,,,,,,,,,,,,,,,,,,,,,,,,,,,,,,,,,,,,,,,,,,,,,,,,,,,,,,,,,,,,,,,,,,,,,,,,,,,,,,,,,,,,,,,,,,,,206.0559517000802,None,207.57305764001796,None,207.5743463000981,None,207.5743463000981,None,210.07346170011442,None,2,1,0.5578597000567243,210.07346170011442,None,,001,2021_Feb_20_1458,GuessTheSound,2020.2.10,60.029954951983775,
,,Siren_C.wav,2,SIMILAR,,,,,,,,,0,28,28,28,,,,,,,,,,,,,,,,,,,,,,,,,,,,,,,,,,,,,,,,,,,,,,,,,,,,,,,,,,,,,,,,,,,,,,,,,,,,,,,,,,,,,,,,,,,,,210.65674090001266,None,212.15678767005448,None,212.16368870006409,None,212.16368870006409,None,214.64010090008378,None,2,1,2.326504600001499,214.64010090008378,None,,001,2021_Feb_20_1458,GuessTheSound,2020.2.10,60.029954951983775,
,,Initial/Doubled/Chime_A.wav,1,OLD,,,,,,,,,0,29,29,29,,,,,,,,,,,,,,,,,,,,,,,,,,,,,,,,,,,,,,,,,,,,,,,,,,,,,,,,,,,,,,,,,,,,,,,,,,,,,,,,,,,,,,,,,,,,,216.9905273000477,None,218.50600017008838,None,218.50660450011492,None,218.50660450011492,None,221.3407444000477,None,3,0,0.6417727000080049,221.3407444000477,None,,001,2021_Feb_20_1458,GuessTheSound,2020.2.10,60.029954951983775,
,,Piano_C.wav,2,SIMILAR,,,,,,,,,0,30,30,30,,,,,,,,,,,,,,,,,,,,,,,,,,,,,,,,,,,,,,,,,,,,,,,,,,,,,,,,,,,,,,,,,,,,,,,,,,,,,,,,,,,,,,,,,,,,,222.00573270011228,None,223.58990672004876,None,223.5808988000499,None,223.5808988000499,None,226.55531980004162,None,2,1,0.5372509000590071,226.55531980004162,None,,001,2021_Feb_20_1458,GuessTheSound,2020.2.10,60.029954951983775,
,,Initial/NoRepeat/Fireworks.wav,1,OLD,,,,,,,,,0,31,31,31,,,,,,,,,,,,,,,,,,,,,,,,,,,,,,,,,,,,,,,,,,,,,,,,,,,,,,,,,,,,,,,,,,,,,,,,,,,,,,,,,,,,,,,,,,,,,227.12119940004777,None,228.62118776999415,None,228.62144470005296,None,228.62144470005296,None,231.5898893000558,None,3,0,0.6777810999192297,231.5898893000558,None,,001,2021_Feb_20_1458,GuessTheSound,2020.2.10,60.029954951983775,
,,Pour_C.wav,2,SIMILAR,,,,,,,,,0,32,32,32,,,,,,,,,,,,,,,,,,,,,,,,,,,,,,,,,,,,,,,,,,,,,,,,,,,,,,,,,,,,,,,,,,,,,,,,,,,,,,,,,,,,,,,,,,,,,232.2911887000082,None,233.80669697008562,None,233.81416650000028,None,233.81416650000028,None,236.82323670003098,None,2,1,0.716697399970144,236.82323670003098,None,,001,2021_Feb_20_1458,GuessTheSound,2020.2.10,60.029954951983775,
,,Bird_D.wav,2,SIMILAR,,,,,,,,,0,33,33,33,,,,,,,,,,,,,,,,,,,,,,,,,,,,,,,,,,,,,,,,,,,,,,,,,,,,,,,,,,,,,,,,,,,,,,,,,,,,,,,,,,,,,,,,,,,,,237.55912900005933,None,239.07248157002033,None,239.0722080001142,None,239.0722080001142,None,240.40685630007647,None,3,0,1.221986300079152,240.40685630007647,None,,001,2021_Feb_20_1458,GuessTheSound,2020.2.10,60.029954951983775,
,,Initial/Repeat/Airplane_B.wav,3,NEW,,,,,,,,,0,34,34,34,,,,,,,,,,,,,,,,,,,,,,,,,,,,,,,,,,,,,,,,,,,,,,,,,,,,,,,,,,,,,,,,,,,,,,,,,,,,,,,,,,,,,,,,,,,,,241.65590370004065,None,243.17281323999634,None,243.16995260003023,None,243.16995260003023,None,245.77288520010188,None,3,1,0.33619760000146925,245.77288520010188,None,,001,2021_Feb_20_1458,GuessTheSound,2020.2.10,60.029954951983775,
,,Initial/Repeat/Buzz.wav,3,NEW,,,,,,,,,0,35,35,35,,,,,,,,,,,,,,,,,,,,,,,,,,,,,,,,,,,,,,,,,,,,,,,,,,,,,,,,,,,,,,,,,,,,,,,,,,,,,,,,,,,,,,,,,,,,,246.14002770010848,None,247.63916746999604,None,247.6395976000931,None,247.6395976000931,None,249.93992030003574,None,3,1,0.4468032999429852,249.93992030003574,None,,001,2021_Feb_20_1458,GuessTheSound,2020.2.10,60.029954951983775,
,,Test/Foils/Donkey.wav,3,NEW,,,,,,,,,0,36,36,36,,,,,,,,,,,,,,,,,,,,,,,,,,,,,,,,,,,,,,,,,,,,,,,,,,,,,,,,,,,,,,,,,,,,,,,,,,,,,,,,,,,,,,,,,,,,,250.40616690006573,None,251.92209844002502,None,251.91144590009935,None,251.91144590009935,None,254.62350540002808,None,3,1,0.71423069993034,254.62350540002808,None,,001,2021_Feb_20_1458,GuessTheSound,2020.2.10,60.029954951983775,
,,Initial/Doubled/Cuckoo_A.wav,1,OLD,,,,,,,,,0,37,37,37,,,,,,,,,,,,,,,,,,,,,,,,,,,,,,,,,,,,,,,,,,,,,,,,,,,,,,,,,,,,,,,,,,,,,,,,,,,,,,,,,,,,,,,,,,,,,255.357044900069,None,256.87230707001873,None,256.87731500004884,None,256.87731500004884,None,259.37342110008467,None,3,0,0.703044900088571,259.37342110008467,None,,001,2021_Feb_20_1458,GuessTheSound,2020.2.10,60.029954951983775,
,,Initial/Doubled/Chicken_A.wav,3,NEW,,,,,,,,,0,38,38,38,,,,,,,,,,,,,,,,,,,,,,,,,,,,,,,,,,,,,,,,,,,,,,,,,,,,,,,,,,,,,,,,,,,,,,,,,,,,,,,,,,,,,,,,,,,,,260.1053562000161,None,261.6220592400292,None,261.61367850005627,None,261.61367850005627,None,263.28940360003617,None,3,1,2.3160164000000805,263.28940360003617,None,,001,2021_Feb_20_1458,GuessTheSound,2020.2.10,60.029954951983775,
,,Initial/Doubled/Laugh_A.wav,3,NEW,,,,,,,,,0,39,39,39,,,,,,,,,,,,,,,,,,,,,,,,,,,,,,,,,,,,,,,,,,,,,,,,,,,,,,,,,,,,,,,,,,,,,,,,,,,,,,,,,,,,,,,,,,,,,265.6223030000692,None,267.1555526100332,None,267.15599250001833,None,267.15599250001833,None,269.856094900053,None,3,1,0.660601400071755,269.856094900053,None,,001,2021_Feb_20_1458,GuessTheSound,2020.2.10,60.029954951983775,
,,Test/Foils/Typing.wav,1,OLD,,,,,,,,,0,40,40,40,,,,,,,,,,,,,,,,,,,,,,,,,,,,,,,,,,,,,,,,,,,,,,,,,,,,,,,,,,,,,,,,,,,,,,,,,,,,,,,,,,,,,,,,,,,,,270.53848910005763,None,272.05565603999423,None,272.0530837000115,None,272.0530837000115,None,274.92288930003997,None,3,0,0.5821317000081763,274.92288930003997,None,,001,2021_Feb_20_1458,GuessTheSound,2020.2.10,60.029954951983775,
,,Initial/Doubled/Cough_A.wav,3,NEW,,,,,,,,,0,41,41,41,,,,,,,,,,,,,,,,,,,,,,,,,,,,,,,,,,,,,,,,,,,,,,,,,,,,,,,,,,,,,,,,,,,,,,,,,,,,,,,,,,,,,,,,,,,,,275.52213210007176,None,277.0221699700458,None,277.0281451001065,None,277.0281451001065,None,278.739719800069,None,3,1,0.8218130999011919,278.739719800069,None,,001,2021_Feb_20_1458,GuessTheSound,2020.2.10,60.029954951983775,
,,Initial/Doubled/Clap_A.wav,3,NEW,,,,,,,,,0,42,42,42,,,,,,,,,,,,,,,,,,,,,,,,,,,,,,,,,,,,,,,,,,,,,,,,,,,,,,,,,,,,,,,,,,,,,,,,,,,,,,,,,,,,,,,,,,,,,279.58972590009216,None,281.1053750700783,None,281.11014330002945,None,281.11014330002945,None,283.62296610011254,None,3,1,0.5882322000106797,283.62296610011254,None,,001,2021_Feb_20_1458,GuessTheSound,2020.2.10,60.029954951983775,
,,Initial/Doubled/Writing_A.wav,1,OLD,,,,,,,,,0,43,43,43,,,,,,,,,,,,,,,,,,,,,,,,,,,,,,,,,,,,,,,,,,,,,,,,,,,,,,,,,,,,,,,,,,,,,,,,,,,,,,,,,,,,,,,,,,,,,284.23843530006707,None,285.73849786999637,None,285.73876490001567,None,285.73876490001567,None,288.4397056000307,None,3,0,1.1192334999796003,288.4397056000307,None,,001,2021_Feb_20_1458,GuessTheSound,2020.2.10,60.029954951983775,
,,Initial/Doubled/Chomp_A.wav,3,NEW,,,,,,,,,0,44,44,44,,,,,,,,,,,,,,,,,,,,,,,,,,,,,,,,,,,,,,,,,,,,,,,,,,,,,,,,,,,,,,,,,,,,,,,,,,,,,,,,,,,,,,,,,,,,,289.5887189001078,None,291.12209151007704,None,291.12717210000847,None,291.12717210000847,None,293.8060358000221,None,3,1,1.2163379999110475,293.8060358000221,None,,001,2021_Feb_20_1458,GuessTheSound,2020.2.10,60.029954951983775,
,,Initial/Doubled/CarStart_A.wav,3,NEW,,,,,,,,,0,45,45,45,,,,,,,,,,,,,,,,,,,,,,,,,,,,,,,,,,,,,,,,,,,,,,,,,,,,,,,,,,,,,,,,,,,,,,,,,,,,,,,,,,,,,,,,,,,,,295.0382830000017,None,296.5549402400153,None,296.5461350000696,None,296.5461350000696,None,299.056422600057,None,3,1,1.4949419000186026,299.056422600057,None,,001,2021_Feb_20_1458,GuessTheSound,2020.2.10,60.029954951983775,
,,Initial/NoRepeat/Fireworks.wav,1,OLD,,,,,,,,,0,46,46,46,,,,,,,,,,,,,,,,,,,,,,,,,,,,,,,,,,,,,,,,,,,,,,,,,,,,,,,,,,,,,,,,,,,,,,,,,,,,,,,,,,,,,,,,,,,,,300.57178510003723,None,302.0889785400592,None,302.0883380000014,None,302.0883380000014,None,305.0562878000783,None,3,0,1.085881800041534,305.0562878000783,None,,001,2021_Feb_20_1458,GuessTheSound,2020.2.10,60.029954951983775,
,,Initial/NoRepeat/Toilet_B.wav,3,NEW,,,,,,,,,0,47,47,47,,,,,,,,,,,,,,,,,,,,,,,,,,,,,,,,,,,,,,,,,,,,,,,,,,,,,,,,,,,,,,,,,,,,,,,,,,,,,,,,,,,,,,,,,,,,,306.1717646000907,None,307.72205018000676,None,307.73051030002534,None,307.73051030002534,None,310.6563447000226,None,3,1,4.779010100057349,310.6563447000226,None,,001,2021_Feb_20_1458,GuessTheSound,2020.2.10,60.029954951983775,
,,Initial/Repeat/Bagpipe.wav,3,NEW,,,,,,,,,0,48,48,48,,,,,,,,,,,,,,,,,,,,,,,,,,,,,,,,,,,,,,,,,,,,,,,,,,,,,,,,,,,,,,,,,,,,,,,,,,,,,,,,,,,,,,,,,,,,,315.454818700091,None,316.9722469400382,None,316.9731336000841,None,316.9731336000841,None,319.3559609000804,None,3,1,0.4702371000312269,319.3559609000804,None,,001,2021_Feb_20_1458,GuessTheSound,2020.2.10,60.029954951983775,
,,Initial/NoRepeat/Helicopter_A.wav,3,NEW,,,,,,,,,0,49,49,49,,,,,,,,,,,,,,,,,,,,,,,,,,,,,,,,,,,,,,,,,,,,,,,,,,,,,,,,,,,,,,,,,,,,,,,,,,,,,,,,,,,,,,,,,,,,,319.85513260005973,None,321.38882411001254,None,321.39806220005266,None,321.39806220005266,None,323.855936500011,None,3,1,0.49359079997520894,323.855936500011,None,,001,2021_Feb_20_1458,GuessTheSound,2020.2.10,60.029954951983775,
,,Initial/Doubled/Dog_A.wav,3,NEW,,,,,,,,,0,50,50,50,,,,,,,,,,,,,,,,,,,,,,,,,,,,,,,,,,,,,,,,,,,,,,,,,,,,,,,,,,,,,,,,,,,,,,,,,,,,,,,,,,,,,,,,,,,,,324.37218650011346,None,325.8885704400251,None,325.8835326000117,None,325.8835326000117,None,328.4893747000024,None,3,1,0.4736830999609083,328.4893747000024,None,,001,2021_Feb_20_1458,GuessTheSound,2020.2.10,60.029954951983775,
,,Test/Foils/Wind_B.wav,3,NEW,,,,,,,,,0,51,51,51,,,,,,,,,,,,,,,,,,,,,,,,,,,,,,,,,,,,,,,,,,,,,,,,,,,,,,,,,,,,,,,,,,,,,,,,,,,,,,,,,,,,,,,,,,,,,328.98809350002557,None,330.53858658000826,None,330.53934570006095,None,330.53934570006095,None,333.272875500028,None,3,1,0.4030033000744879,333.272875500028,None,,001,2021_Feb_20_1458,GuessTheSound,2020.2.10,60.029954951983775,
,,Initial/Doubled/Chime_A.wav,1,OLD,,,,,,,,,0,52,52,52,,,,,,,,,,,,,,,,,,,,,,,,,,,,,,,,,,,,,,,,,,,,,,,,,,,,,,,,,,,,,,,,,,,,,,,,,,,,,,,,,,,,,,,,,,,,,333.7055298000341,None,335.22161184009167,None,335.2176646000007,None,335.2176646000007,None,338.0395433000522,None,3,0,0.4273989999201149,338.0395433000522,None,,001,2021_Feb_20_1458,GuessTheSound,2020.2.10,60.029954951983775,
,,Laugh_C.wav,2,SIMILAR,,,,,,,,,0,53,53,53,,,,,,,,,,,,,,,,,,,,,,,,,,,,,,,,,,,,,,,,,,,,,,,,,,,,,,,,,,,,,,,,,,,,,,,,,,,,,,,,,,,,,,,,,,,,,338.4890269000316,None,340.0384689800441,None,340.0411336000543,None,340.0411336000543,None,342.90562690002844,None,3,0,0.4872881999472156,342.90562690002844,None,,001,2021_Feb_20_1458,GuessTheSound,2020.2.10,60.029954951983775,
,,Cough_D.wav,2,SIMILAR,,,,,,,,,0,54,54,54,,,,,,,,,,,,,,,,,,,,,,,,,,,,,,,,,,,,,,,,,,,,,,,,,,,,,,,,,,,,,,,,,,,,,,,,,,,,,,,,,,,,,,,,,,,,,343.4215715000173,None,344.93832234004515,None,344.9360853000544,None,344.9360853000544,None,346.70376890001353,None,2,1,0.9380751999560744,346.70376890001353,None,,001,2021_Feb_20_1458,GuessTheSound,2020.2.10,60.029954951983775,
,,Initial/Repeat/Buzz.wav,1,OLD,,,,,,,,,0,55,55,55,,,,,,,,,,,,,,,,,,,,,,,,,,,,,,,,,,,,,,,,,,,,,,,,,,,,,,,,,,,,,,,,,,,,,,,,,,,,,,,,,,,,,,,,,,,,,347.6697501000017,None,349.16986716999673,None,349.16998770006467,None,349.16998770006467,None,351.4712894000113,None,1,1,1.2030960000120103,351.4712894000113,None,,001,2021_Feb_20_1458,GuessTheSound,2020.2.10,60.029954951983775,
,,Initial/Repeat/IceDrop.wav,3,NEW,,,,,,,,,0,56,56,56,,,,,,,,,,,,,,,,,,,,,,,,,,,,,,,,,,,,,,,,,,,,,,,,,,,,,,,,,,,,,,,,,,,,,,,,,,,,,,,,,,,,,,,,,,,,,352.7044839001028,None,354.20460197010544,None,354.20929600007366,None,354.20929600007366,None,356.9555074000964,None,3,1,1.0224280999973416,356.9555074000964,None,,001,2021_Feb_20_1458,GuessTheSound,2020.2.10,60.029954951983775,
,,Initial/NoRepeat/Toilet_B.wav,1,OLD,,,,,,,,,0,57,57,57,,,,,,,,,,,,,,,,,,,,,,,,,,,,,,,,,,,,,,,,,,,,,,,,,,,,,,,,,,,,,,,,,,,,,,,,,,,,,,,,,,,,,,,,,,,,,358.0042625000933,None,359.5215153399855,None,359.51690660009626,None,359.51690660009626,None,362.43857650004793,None,1,1,0.318346899934113,362.43857650004793,None,,001,2021_Feb_20_1458,GuessTheSound,2020.2.10,60.029954951983775,
,,CarStart_D.wav,2,SIMILAR,,,,,,,,,0,58,58,58,,,,,,,,,,,,,,,,,,,,,,,,,,,,,,,,,,,,,,,,,,,,,,,,,,,,,,,,,,,,,,,,,,,,,,,,,,,,,,,,,,,,,,,,,,,,,362.77328449999914,None,364.30466273999775,None,364.29616960010026,None,364.29616960010026,None,367.3554421000881,None,2,1,0.47533519996795803,367.3554421000881,None,,001,2021_Feb_20_1458,GuessTheSound,2020.2.10,60.029954951983775,
,,Chomp_B.wav,2,SIMILAR,,,,,,,,,0,59,59,59,,,,,,,,,,,,,,,,,,,,,,,,,,,,,,,,,,,,,,,,,,,,,,,,,,,,,,,,,,,,,,,,,,,,,,,,,,,,,,,,,,,,,,,,,,,,,367.8540650000796,None,369.37134114003277,None,369.36949370009825,None,369.36949370009825,None,371.971701100003,None,3,0,1.487519699963741,371.971701100003,None,,001,2021_Feb_20_1458,GuessTheSound,2020.2.10,60.029954951983775,
,,Initial/Doubled/Clap_A.wav,1,OLD,,,,,,,,,0,60,60,60,,,,,,,,,,,,,,,,,,,,,,,,,,,,,,,,,,,,,,,,,,,,,,,,,,,,,,,,,,,,,,,,,,,,,,,,,,,,,,,,,,,,,,,,,,,,,373.4879247000208,None,375.0048288400518,None,375.0007086000405,None,375.0007086000405,None,377.50562490010634,None,1,1,0.3872280999785289,377.50562490010634,None,,001,2021_Feb_20_1458,GuessTheSound,2020.2.10,60.029954951983775,
,,Initial/Doubled/Bubbles_A.wav,3,NEW,,,,,,,,,0,61,61,61,,,,,,,,,,,,,,,,,,,,,,,,,,,,,,,,,,,,,,,,,,,,,,,,,,,,,,,,,,,,,,,,,,,,,,,,,,,,,,,,,,,,,,,,,,,,,377.92162890010513,None,379.4714045799803,None,379.4683296000585,None,379.4683296000585,None,381.88891700003296,None,3,1,2.744858500082046,381.88891700003296,None,,001,2021_Feb_20_1458,GuessTheSound,2020.2.10,60.029954951983775,
