File,Correct,SoundFile5,Correct2,Type,trials_2.thisRepN,trials_2.thisTrialN,trials_2.thisN,trials_2.thisIndex,PracticeTrials.thisRepN,PracticeTrials.thisTrialN,PracticeTrials.thisN,PracticeTrials.thisIndex,trials.thisRepN,trials.thisTrialN,trials.thisN,trials.thisIndex,InstructionTxt.started,InstructionTxt.stopped,WelcomContinue.started,WelcomContinue.stopped,VolumeBeginTxt.started,VolumeBeginTxt.stopped,VolumeContinueKey.keys,VolumeContinueKey.rt,VolumeContinueKey.started,VolumeContinueKey.stopped,text.started,text.stopped,Music.started,Music.stopped,AdjustContinue.started,AdjustContinue.stopped,HeadphoneCheckBeing.started,HeadphoneCheckBeing.stopped,HeadphoneContinue.started,HeadphoneContinue.stopped,HeadphoneContinueKey.keys,HeadphoneContinueKey.rt,HeadphoneContinueKey.started,HeadphoneContinueKey.stopped,CheckSound.started,CheckSound.stopped,QuestionTxt.started,QuestionTxt.stopped,CheckTrial.started,CheckTrial.stopped,CrossHeadphone.started,CrossHeadphone.stopped,CheckResp.keys,CheckResp.corr,CheckResp.rt,CheckResp.started,CheckResp.stopped,FeedbackTxt.started,FeedbackTxt.stopped,text_3.started,text_3.stopped,text_4.started,text_4.stopped,key_resp_2.keys,key_resp_2.rt,key_resp_2.started,key_resp_2.stopped,text_5.started,text_5.stopped,text_6.started,text_6.stopped,key_resp_3.keys,key_resp_3.rt,key_resp_3.started,key_resp_3.stopped,InstructionTxt2.started,InstructionTxt2.stopped,WelcomeContinue2.started,WelcomeContinue2.stopped,WelcomeContinueKey2.keys,WelcomeContinueKey2.rt,WelcomeContinueKey2.started,WelcomeContinueKey2.stopped,TrialNumber.started,TrialNumber.stopped,PracticeSound.started,PracticeSound.stopped,PracticeCross.started,PracticeCross.stopped,Practice_resp.keys,Practice_resp.corr,Practice_resp.rt,Practice_resp.started,Practice_resp.stopped,PracticeMssg.started,PracticeMssg.stopped,FeedbackCross.started,FeedbackCross.stopped,Continue.started,Continue.stopped,Options.started,Options.stopped,FeedbackMssg.started,FeedbackMssg.stopped,StartTxt.started,StartTxt.stopped,StartTast.keys,StartTast.rt,StartTast.started,StartTast.stopped,ContinueStart.started,ContinueStart.stopped,no_3.started,no_3.stopped,TargetSound.started,TargetSound.stopped,Cross.started,Cross.stopped,ItemNumber.started,ItemNumber.stopped,text_2.started,text_2.stopped,key_resp.keys,key_resp.corr,key_resp.rt,key_resp.started,key_resp.stopped,participant,session,date,expName,psychopyVersion,frameRate,
,,,,,,,,,,,,,,,,,20.66144689999055,None,20.66144689999055,None,21.505423299968243,None,space,0.8555462999502197,21.505423299968243,None,,,,,,,,,,,,,,,,,,,,,,,,,,,,,,,,,,,,,,,,,,,,,,,,,,,,,,,,,,,,,,,,,,,,,,,,,,,,,,,,,,,,,,,,,,,,,,,,,,,001,2021_Feb_17_2306,GuessTheSound,2020.2.10,60.033558749298415,
,,,,,,,,,,,,,,,,,,,,,,,,,,,22.4038674000185,None,22.40273889997043,None,22.4038674000185,None,23.02053340000566,None,23.02053340000566,None,space,2.2066093999892473,23.02053340000566,None,,,,,,,,,,,,,,,,,,,,,,,,,,,,,,,,,,,,,,,,,,,,,,,,,,,,,,,,,,,,,,,,,,,,,,,,,,,,,,,,,,,,,001,2021_Feb_17_2306,GuessTheSound,2020.2.10,60.033558749298415,
Headphone/t3_1.wav,3,,,,0,0,0,4,,,,,,,,,,,,,,,,,,,,,,,,,,,,,,,,,25.33680690000765,None,29.869290599948727,None,25.3424741999479,29.88588349998463,25.3424741999479,29.88588349998463,2,0,0.9614194000605494,29.869290599948727,None,30.869882600032724,None,,,,,,,,,,,,,,,,,,,,,,,,,,,,,,,,,,,,,,,,,,,,,,,,,,,,,,,,,,,,,,,,,,,,,,001,2021_Feb_17_2306,GuessTheSound,2020.2.10,60.033558749298415,
Headphone/t1_1.wav,1,,,,0,1,1,0,,,,,,,,,,,,,,,,,,,,,,,,,,,,,,,,,31.88550639995374,None,36.41941560001578,None,31.884591699927114,36.43576449993998,31.884591699927114,36.43576449993998,3,0,0.36254829994868487,36.41941560001578,None,36.80212400003802,None,,,,,,,,,,,,,,,,,,,,,,,,,,,,,,,,,,,,,,,,,,,,,,,,,,,,,,,,,,,,,,,,,,,,,,001,2021_Feb_17_2306,GuessTheSound,2020.2.10,60.033558749298415,
Headphone/t3_2.wav,3,,,,0,2,2,5,,,,,,,,,,,,,,,,,,,,,,,,,,,,,,,,,37.818706100038256,None,42.33571369992569,None,37.81708459998481,42.35222879995126,37.81708459998481,42.35222879995126,1,0,0.2763648999389261,42.33571369992569,None,42.63529310002923,None,,,,,,,,,,,,,,,,,,,,,,,,,,,,,,,,,,,,,,,,,,,,,,,,,,,,,,,,,,,,,,,,,,,,,,001,2021_Feb_17_2306,GuessTheSound,2020.2.10,60.033558749298415,
Headphone/t2_2.wav,2,,,,0,3,3,3,,,,,,,,,,,,,,,,,,,,,,,,,,,,,,,,,43.652197500038895,None,48.16938640002627,None,43.65046179993078,48.18622529995628,43.65046179993078,48.18622529995628,3,0,0.3465763999847695,48.16938640002627,None,48.53590310004074,None,,,,,,,,,,,,,,,,,,,,,,,,,,,,,,,,,,,,,,,,,,,,,,,,,,,,,,,,,,,,,,,,,,,,,,001,2021_Feb_17_2306,GuessTheSound,2020.2.10,60.033558749298415,
Headphone/t1_2.wav,1,,,,0,4,4,1,,,,,,,,,,,,,,,,,,,,,,,,,,,,,,,,,49.568972399993804,None,54.10196709993761,None,49.57419249997474,54.11831039993558,49.57419249997474,54.11831039993558,2,0,0.3810922000557184,54.10196709993761,None,54.50291849998757,None,,,,,,,,,,,,,,,,,,,,,,,,,,,,,,,,,,,,,,,,,,,,,,,,,,,,,,,,,,,,,,,,,,,,,,001,2021_Feb_17_2306,GuessTheSound,2020.2.10,60.033558749298415,
Headphone/t2_1.wav,2,,,,0,5,5,2,,,,,,,,,,,,,,,,,,,,,,,,,,,,,,,,,55.55215259999968,None,60.08595600002445,None,55.55307210003957,60.102671499946155,55.55307210003957,60.102671499946155,3,0,0.6190416000317782,60.08595600002445,None,60.737197699956596,None,,,,,,,,,,,,,,,,,,,,,,,,,,,,,,,,,,,,,,,,,,,,,,,,,,,,,,,,,,,,,,,,,,,,,,001,2021_Feb_17_2306,GuessTheSound,2020.2.10,60.033558749298415,
,,,,,,,,,,,,,,,,,,,,,,,,,,,,,,,,,,,,,,,,,,,,,,,,,,,,,,,,61.75355170003604,None,61.75355170003604,None,space,5.005005300045013,61.75355170003604,None,,,,,,,,,,,,,,,,,,,,,,,,,,,,,,,,,,,,,,,,,,,,,,,,,,,,,,,,,,,,,,001,2021_Feb_17_2306,GuessTheSound,2020.2.10,60.033558749298415,
,,,,,,,,,,,,,,,,,,,,,,,,,,,,,,,,,,,,,,,,,,,,,,,,,,,,,,,,,,,,,,,,66.79078809998464,None,66.79078809998464,None,space,4.68774389999453,66.79078809998464,None,,,,,,,,,,,,,,,,,,,,,,,,,,,,,,,,,,,,,,,,,,,,,,,,,,,,,,001,2021_Feb_17_2306,GuessTheSound,2020.2.10,60.033558749298415,
,,,,,,,,,,,,,,,,,,,,,,,,,,,,,,,,,,,,,,,,,,,,,,,,,,,,,,,,,,,,,,,,,,,,,,,,71.5100629000226,None,71.5100629000226,None,space,1.586809100001119,71.5100629000226,None,,,,,,,,,,,,,,,,,,,,,,,,,,,,,,,,,,,,,,,,,,,,,,001,2021_Feb_17_2306,GuessTheSound,2020.2.10,60.033558749298415,
,2,Practice/Seagull_A.wav,3,NEW,,,,,0,0,0,0,,,,,,,,,,,,,,,,,,,,,,,,,,,,,,,,,,,,,,,,,,,,,,,,,,,,,,,,,,,,,,,,,,,,73.17239259998314,75.43565100000706,73.1689892000053,None,73.17239259998314,75.43565100000706,2,0,5.896517199929804,75.48354309995193,None,75.48354309995193,None,75.48354309995193,None,75.48354309995193,None,75.48354309995193,None,81.4260035000043,None,,,,,,,,,,,,,,,,,,,,,,,,,001,2021_Feb_17_2306,GuessTheSound,2020.2.10,60.033558749298415,
,2,Practice/Skid_B.wav,3,NEW,,,,,0,1,1,1,,,,,,,,,,,,,,,,,,,,,,,,,,,,,,,,,,,,,,,,,,,,,,,,,,,,,,,,,,,,,,,,,,,,82.43993919994682,None,82.43565030004828,None,82.43993919994682,None,3,1,2.1769494999898598,84.55379709997214,None,84.55379709997214,None,84.55379709997214,None,84.55379709997214,None,84.55379709997214,None,86.76680879993364,None,,,,,,,,,,,,,,,,,,,,,,,,,001,2021_Feb_17_2306,GuessTheSound,2020.2.10,60.033558749298415,
,1,Practice/Seagull_A.wav,1,OLD,,,,,0,2,2,2,,,,,,,,,,,,,,,,,,,,,,,,,,,,,,,,,,,,,,,,,,,,,,,,,,,,,,,,,,,,,,,,,,,,87.78361329995096,None,87.78536429994273,None,87.78361329995096,None,1,1,1.2487287999829277,90.07480539998505,None,90.07480539998505,None,90.07480539998505,None,90.07480539998505,None,90.07480539998505,None,91.35215299995616,None,,,,,,,,,,,,,,,,,,,,,,,,,001,2021_Feb_17_2306,GuessTheSound,2020.2.10,60.033558749298415,
,2,Practice/Gargle_A.wav,3,NEW,,,,,0,3,3,3,,,,,,,,,,,,,,,,,,,,,,,,,,,,,,,,,,,,,,,,,,,,,,,,,,,,,,,,,,,,,,,,,,,,92.37471939995885,94.63539980002679,92.36890489996875,None,92.37471939995885,94.63539980002679,3,1,1.0103446999564767,94.67148100002669,None,94.67148100002669,None,94.67148100002669,None,94.67148100002669,None,94.67148100002669,None,95.70332339999732,None,,,,,,,,,,,,,,,,,,,,,,,,,001,2021_Feb_17_2306,GuessTheSound,2020.2.10,60.033558749298415,
,2,Practice/Gargle_B.wav,2,SIMILAR,,,,,0,4,4,4,,,,,,,,,,,,,,,,,,,,,,,,,,,,,,,,,,,,,,,,,,,,,,,,,,,,,,,,,,,,,,,,,,,,96.74828399997205,None,96.735161399981,None,96.74828399997205,None,3,0,1.5037465000059456,98.83444679994136,None,98.83444679994136,None,98.83444679994136,None,98.83444679994136,None,98.83444679994136,None,100.36896440002602,None,,,,,,,,,,,,,,,,,,,,,,,,,001,2021_Feb_17_2306,GuessTheSound,2020.2.10,60.033558749298415,
,,,,,,,,,,,,,,,,,,,,,,,,,,,,,,,,,,,,,,,,,,,,,,,,,,,,,,,,,,,,,,,,,,,,,,,,,,,,,,,,,,,,,,,,,,,,,,,,,,,,,101.36923519999254,None,space,2.2533622999908403,101.36923519999254,None,,,,,,,,,,,,,,,,,,,001,2021_Feb_17_2306,GuessTheSound,2020.2.10,60.033558749298415,
,2,Initial/NoRepeat/Elephant_A.wav,3,NEW,,,,,,,,,0,0,0,0,,,,,,,,,,,,,,,,,,,,,,,,,,,,,,,,,,,,,,,,,,,,,,,,,,,,,,,,,,,,,,,,,,,,,,,,,,,,,,,,,,,,,,,,,,,101.36923519999254,None,103.72748839994892,None,105.1851068999851,None,105.19538729998749,None,105.19538729998749,None,108.25216599996202,None,2,1,3.1664537999313325,108.25216599996202,None,,001,2021_Feb_17_2306,GuessTheSound,2020.2.10,60.033558749298415,
,2,Initial/NoRepeat/Thunder_A.wav,3,NEW,,,,,,,,,0,1,1,1,,,,,,,,,,,,,,,,,,,,,,,,,,,,,,,,,,,,,,,,,,,,,,,,,,,,,,,,,,,,,,,,,,,,,,,,,,,,,,,,,,,,,,,,,,,,,111.43705649999902,None,112.98404900003224,None,112.97865619999357,None,112.97865619999357,None,115.96845499996562,None,2,1,0.6590787000022829,115.96845499996562,None,,001,2021_Feb_17_2306,GuessTheSound,2020.2.10,60.033558749298415,
,2,Test/Lures/Chime_B.wav,3,NEW,,,,,,,,,0,2,2,2,,,,,,,,,,,,,,,,,,,,,,,,,,,,,,,,,,,,,,,,,,,,,,,,,,,,,,,,,,,,,,,,,,,,,,,,,,,,,,,,,,,,,,,,,,,,,116.65227269998286,None,118.20172900005709,None,118.1963923999574,None,118.1963923999574,None,121.01886339997873,None,2,1,0.3440997999859974,121.01886339997873,None,,001,2021_Feb_17_2306,GuessTheSound,2020.2.10,60.033558749298415,
,2,Initial/NoRepeat/Toilet_B.wav,3,NEW,,,,,,,,,0,3,3,3,,,,,,,,,,,,,,,,,,,,,,,,,,,,,,,,,,,,,,,,,,,,,,,,,,,,,,,,,,,,,,,,,,,,,,,,,,,,,,,,,,,,,,,,,,,,,121.38492420001421,None,122.90208019996061,None,122.90965069993399,None,122.90965069993399,None,125.83543029997963,None,2,1,0.6926878000376746,125.83543029997963,None,,001,2021_Feb_17_2306,GuessTheSound,2020.2.10,60.033558749298415,
,2,Test/Foils/Typing.wav,3,NEW,,,,,,,,,0,4,4,4,,,,,,,,,,,,,,,,,,,,,,,,,,,,,,,,,,,,,,,,,,,,,,,,,,,,,,,,,,,,,,,,,,,,,,,,,,,,,,,,,,,,,,,,,,,,,126.55321269994602,None,128.13497969997115,None,128.13458439998794,None,128.13458439998794,None,131.00183680001646,None,2,1,0.37272739992477,131.00183680001646,None,,001,2021_Feb_17_2306,GuessTheSound,2020.2.10,60.033558749298415,
,2,Initial/Repeat/Pour.wav,3,NEW,,,,,,,,,0,5,5,5,,,,,,,,,,,,,,,,,,,,,,,,,,,,,,,,,,,,,,,,,,,,,,,,,,,,,,,,,,,,,,,,,,,,,,,,,,,,,,,,,,,,,,,,,,,,,131.40159819996916,None,132.9183083000127,None,132.92022810003255,None,132.92022810003255,None,135.48504699999467,None,2,1,0.580356499995105,135.48504699999467,None,,001,2021_Feb_17_2306,GuessTheSound,2020.2.10,60.033558749298415,
,1,Initial/NoRepeat/Thunder_A.wav,1,OLD,,,,,,,,,0,6,6,6,,,,,,,,,,,,,,,,,,,,,,,,,,,,,,,,,,,,,,,,,,,,,,,,,,,,,,,,,,,,,,,,,,,,,,,,,,,,,,,,,,,,,,,,,,,,,136.0868723000167,None,137.6182770999614,None,137.61837849998847,None,137.61837849998847,None,140.60171640000772,None,1,1,0.44299100001808256,140.60171640000772,None,,001,2021_Feb_17_2306,GuessTheSound,2020.2.10,60.033558749298415,
,2,Initial/NoRepeat/Sleighbells_B.wav,3,NEW,,,,,,,,,0,7,7,7,,,,,,,,,,,,,,,,,,,,,,,,,,,,,,,,,,,,,,,,,,,,,,,,,,,,,,,,,,,,,,,,,,,,,,,,,,,,,,,,,,,,,,,,,,,,,141.06868309993297,None,142.6012803000165,None,142.60209609998856,None,142.60209609998856,None,145.03525319998153,None,2,1,0.8473609000211582,145.03525319998153,None,,001,2021_Feb_17_2306,GuessTheSound,2020.2.10,60.033558749298415,
,2,Initial/Repeat/Buzz.wav,3,NEW,,,,,,,,,0,8,8,8,,,,,,,,,,,,,,,,,,,,,,,,,,,,,,,,,,,,,,,,,,,,,,,,,,,,,,,,,,,,,,,,,,,,,,,,,,,,,,,,,,,,,,,,,,,,,145.90357720002066,None,147.4515572000062,None,147.44767170003615,None,147.44767170003615,None,149.75114659999963,None,2,1,0.36351150006521493,149.75114659999963,None,,001,2021_Feb_17_2306,GuessTheSound,2020.2.10,60.033558749298415,
,2,Initial/NoRepeat/Baby_B.wav,3,NEW,,,,,,,,,0,9,9,9,,,,,,,,,,,,,,,,,,,,,,,,,,,,,,,,,,,,,,,,,,,,,,,,,,,,,,,,,,,,,,,,,,,,,,,,,,,,,,,,,,,,,,,,,,,,,150.13476599997375,None,151.68508519998286,None,151.69197419995908,None,151.69197419995908,None,154.73458549997304,None,2,1,0.08998549997340888,154.73458549997304,None,,001,2021_Feb_17_2306,GuessTheSound,2020.2.10,60.033558749298415,
,2,Initial/NoRepeat/Mosquito_B.wav,3,NEW,,,,,,,,,0,10,10,10,,,,,,,,,,,,,,,,,,,,,,,,,,,,,,,,,,,,,,,,,,,,,,,,,,,,,,,,,,,,,,,,,,,,,,,,,,,,,,,,,,,,,,,,,,,,,154.85114219994284,None,156.36819160000886,None,156.37370450003073,None,156.37370450003073,None,158.51850090001244,None,2,1,0.4981160999741405,158.51850090001244,None,,001,2021_Feb_17_2306,GuessTheSound,2020.2.10,60.033558749298415,
,1,Test/Foils/Typing.wav,1,OLD,,,,,,,,,0,11,11,11,,,,,,,,,,,,,,,,,,,,,,,,,,,,,,,,,,,,,,,,,,,,,,,,,,,,,,,,,,,,,,,,,,,,,,,,,,,,,,,,,,,,,,,,,,,,,159.03517449996434,None,160.55161659994627,None,160.54720889998134,None,160.54720889998134,None,163.4183597000083,None,1,1,0.396445200080052,163.4183597000083,None,,001,2021_Feb_17_2306,GuessTheSound,2020.2.10,60.033558749298415,
,2,Initial/Doubled/Chime_A.wav,2,SIMILAR,,,,,,,,,0,12,12,12,,,,,,,,,,,,,,,,,,,,,,,,,,,,,,,,,,,,,,,,,,,,,,,,,,,,,,,,,,,,,,,,,,,,,,,,,,,,,,,,,,,,,,,,,,,,,163.83436229999643,None,165.3686839999398,None,165.36786699993536,None,165.36786699993536,None,168.2014577999944,None,1,0,0.43622010003309697,168.2014577999944,None,,001,2021_Feb_17_2306,GuessTheSound,2020.2.10,60.033558749298415,
,2,Test/Foils/DialTone.wav,3,NEW,,,,,,,,,0,13,13,13,,,,,,,,,,,,,,,,,,,,,,,,,,,,,,,,,,,,,,,,,,,,,,,,,,,,,,,,,,,,,,,,,,,,,,,,,,,,,,,,,,,,,,,,,,,,,168.66798749996815,None,170.21770749995486,None,170.21875370002817,None,170.21875370002817,None,172.7348745999625,None,2,1,0.4763099999399856,172.7348745999625,None,,001,2021_Feb_17_2306,GuessTheSound,2020.2.10,60.033558749298415,
,2,Initial/Doubled/Writing_A.wav,3,NEW,,,,,,,,,0,14,14,14,,,,,,,,,,,,,,,,,,,,,,,,,,,,,,,,,,,,,,,,,,,,,,,,,,,,,,,,,,,,,,,,,,,,,,,,,,,,,,,,,,,,,,,,,,,,,173.23624719993677,None,174.7679807999404,None,174.76493479998317,None,174.76493479998317,None,177.46834809996653,None,1,0,0.29453559999819845,177.46834809996653,None,,001,2021_Feb_17_2306,GuessTheSound,2020.2.10,60.033558749298415,
,2,Initial/NoRepeat/Faucet_A.wav,3,NEW,,,,,,,,,0,15,15,15,,,,,,,,,,,,,,,,,,,,,,,,,,,,,,,,,,,,,,,,,,,,,,,,,,,,,,,,,,,,,,,,,,,,,,,,,,,,,,,,,,,,,,,,,,,,,177.78490379999857,None,179.31799610001033,None,179.319372799946,None,179.319372799946,None,181.8011511999648,None,1,0,0.4540699999779463,181.8011511999648,None,,001,2021_Feb_17_2306,GuessTheSound,2020.2.10,60.033558749298415,
,1,Initial/NoRepeat/Toilet_B.wav,1,OLD,,,,,,,,,0,16,16,16,,,,,,,,,,,,,,,,,,,,,,,,,,,,,,,,,,,,,,,,,,,,,,,,,,,,,,,,,,,,,,,,,,,,,,,,,,,,,,,,,,,,,,,,,,,,,182.28493339999113,None,183.8012397999875,None,183.79782159999013,None,183.79782159999013,None,186.71824409998953,None,1,1,0.32636430009733886,186.71824409998953,None,,001,2021_Feb_17_2306,GuessTheSound,2020.2.10,60.033558749298415,
,2,Pour_C.wav,2,SIMILAR,,,,,,,,,0,17,17,17,,,,,,,,,,,,,,,,,,,,,,,,,,,,,,,,,,,,,,,,,,,,,,,,,,,,,,,,,,,,,,,,,,,,,,,,,,,,,,,,,,,,,,,,,,,,,187.0694221999729,None,188.6342344999779,None,188.6312684000004,None,188.6312684000004,None,191.63494220003486,None,2,1,0.7421484999358654,191.63494220003486,None,,001,2021_Feb_17_2306,GuessTheSound,2020.2.10,60.033558749298415,
,1,Initial/NoRepeat/Sleighbells_B.wav,1,OLD,,,,,,,,,0,18,18,18,,,,,,,,,,,,,,,,,,,,,,,,,,,,,,,,,,,,,,,,,,,,,,,,,,,,,,,,,,,,,,,,,,,,,,,,,,,,,,,,,,,,,,,,,,,,,192.402119699982,None,193.9175162000116,None,193.9269401000347,None,193.9269401000347,None,196.35129499994218,None,1,1,0.6467880000127479,196.35129499994218,None,,001,2021_Feb_17_2306,GuessTheSound,2020.2.10,60.033558749298415,
,2,Initial/Doubled/Bubbles_A.wav,3,NEW,,,,,,,,,0,19,19,19,,,,,,,,,,,,,,,,,,,,,,,,,,,,,,,,,,,,,,,,,,,,,,,,,,,,,,,,,,,,,,,,,,,,,,,,,,,,,,,,,,,,,,,,,,,,,197.01885180000681,None,198.5511374000227,None,198.55624990002252,None,198.55624990002252,None,200.96797160001006,None,2,1,0.5791030999971554,200.96797160001006,None,,001,2021_Feb_17_2306,GuessTheSound,2020.2.10,60.033558749298415,
,1,Initial/Repeat/Buzz.wav,1,OLD,,,,,,,,,0,20,20,20,,,,,,,,,,,,,,,,,,,,,,,,,,,,,,,,,,,,,,,,,,,,,,,,,,,,,,,,,,,,,,,,,,,,,,,,,,,,,,,,,,,,,,,,,,,,,201.56755040003918,None,203.08405929994768,None,203.0799027000321,None,203.0799027000321,None,205.3846337000141,None,1,1,0.4420338999480009,205.3846337000141,None,,001,2021_Feb_17_2306,GuessTheSound,2020.2.10,60.033558749298415,
,2,Baby_A.wav,2,SIMILAR,,,,,,,,,0,21,21,21,,,,,,,,,,,,,,,,,,,,,,,,,,,,,,,,,,,,,,,,,,,,,,,,,,,,,,,,,,,,,,,,,,,,,,,,,,,,,,,,,,,,,,,,,,,,,205.85492790001445,None,207.3841483999742,None,207.38903760001995,None,207.38903760001995,None,209.98473919997923,None,2,1,0.8075547000626102,209.98473919997923,None,,001,2021_Feb_17_2306,GuessTheSound,2020.2.10,60.033558749298415,
,1,Initial/Doubled/Writing_A.wav,1,OLD,,,,,,,,,0,22,22,22,,,,,,,,,,,,,,,,,,,,,,,,,,,,,,,,,,,,,,,,,,,,,,,,,,,,,,,,,,,,,,,,,,,,,,,,,,,,,,,,,,,,,,,,,,,,,210.81869490002282,None,212.3342728000367,None,212.34457309998106,None,212.34457309998106,None,215.03423789993394,None,1,1,0.6548530999571085,215.03423789993394,None,,001,2021_Feb_17_2306,GuessTheSound,2020.2.10,60.033558749298415,
,2,Initial/Doubled/Cough_A.wav,3,NEW,,,,,,,,,0,23,23,23,,,,,,,,,,,,,,,,,,,,,,,,,,,,,,,,,,,,,,,,,,,,,,,,,,,,,,,,,,,,,,,,,,,,,,,,,,,,,,,,,,,,,,,,,,,,,215.71753200003877,None,217.23402260004076,None,217.24004870001227,None,217.24004870001227,None,218.95100220001768,None,2,1,0.4757884000428021,218.95100220001768,None,,001,2021_Feb_17_2306,GuessTheSound,2020.2.10,60.033558749298415,
,1,Test/Foils/DialTone.wav,1,OLD,,,,,,,,,0,24,24,24,,,,,,,,,,,,,,,,,,,,,,,,,,,,,,,,,,,,,,,,,,,,,,,,,,,,,,,,,,,,,,,,,,,,,,,,,,,,,,,,,,,,,,,,,,,,,219.4516659999499,None,220.95084620001725,None,220.96036559995264,None,220.96036559995264,None,223.4677776999306,None,1,1,0.6195996999740601,223.4677776999306,None,,001,2021_Feb_17_2306,GuessTheSound,2020.2.10,60.033558749298415,
,2,Test/Foils/Heartbeat.wav,3,NEW,,,,,,,,,0,25,25,25,,,,,,,,,,,,,,,,,,,,,,,,,,,,,,,,,,,,,,,,,,,,,,,,,,,,,,,,,,,,,,,,,,,,,,,,,,,,,,,,,,,,,,,,,,,,,224.11732109996956,None,225.66710279996042,None,225.66366880002897,None,225.66366880002897,None,228.08457950002048,None,2,1,0.3522296999581158,228.08457950002048,None,,001,2021_Feb_17_2306,GuessTheSound,2020.2.10,60.033558749298415,
,2,Initial/Repeat/IceDrop.wav,3,NEW,,,,,,,,,0,26,26,26,,,,,,,,,,,,,,,,,,,,,,,,,,,,,,,,,,,,,,,,,,,,,,,,,,,,,,,,,,,,,,,,,,,,,,,,,,,,,,,,,,,,,,,,,,,,,228.46711349999532,None,229.9839612000389,None,229.99003009998705,None,229.99003009998705,None,232.75079279998317,None,2,1,0.47574420005548745,232.75079279998317,None,,001,2021_Feb_17_2306,GuessTheSound,2020.2.10,60.033558749298415,
,2,Bird_C.wav,3,NEW,,,,,,,,,0,27,27,27,,,,,,,,,,,,,,,,,,,,,,,,,,,,,,,,,,,,,,,,,,,,,,,,,,,,,,,,,,,,,,,,,,,,,,,,,,,,,,,,,,,,,,,,,,,,,233.25120009994134,None,234.76702149996999,None,234.76606419996824,None,234.76606419996824,None,236.51763310004026,None,2,1,0.6211208999156952,236.51763310004026,None,,001,2021_Feb_17_2306,GuessTheSound,2020.2.10,60.033558749298415,
,2,Initial/NoRepeat/Puff_A.wav,3,NEW,,,,,,,,,0,28,28,28,,,,,,,,,,,,,,,,,,,,,,,,,,,,,,,,,,,,,,,,,,,,,,,,,,,,,,,,,,,,,,,,,,,,,,,,,,,,,,,,,,,,,,,,,,,,,237.16705549997278,None,238.6838712000055,None,238.6926220000023,None,238.6926220000023,None,240.38439889997244,None,2,1,0.3615165000082925,240.38439889997244,None,,001,2021_Feb_17_2306,GuessTheSound,2020.2.10,60.033558749298415,
,1,Initial/NoRepeat/Faucet_A.wav,1,OLD,,,,,,,,,0,29,29,29,,,,,,,,,,,,,,,,,,,,,,,,,,,,,,,,,,,,,,,,,,,,,,,,,,,,,,,,,,,,,,,,,,,,,,,,,,,,,,,,,,,,,,,,,,,,,240.76729370001704,None,242.28373319997917,None,242.28166069998406,None,242.28166069998406,None,244.7676525999559,None,1,1,0.4999926999444142,244.7676525999559,None,,001,2021_Feb_17_2306,GuessTheSound,2020.2.10,60.033558749298415,
,2,Initial/NoRepeat/Duck_A.wav,3,NEW,,,,,,,,,0,30,30,30,,,,,,,,,,,,,,,,,,,,,,,,,,,,,,,,,,,,,,,,,,,,,,,,,,,,,,,,,,,,,,,,,,,,,,,,,,,,,,,,,,,,,,,,,,,,,245.3005295000039,None,246.81717109999153,None,246.82213570002932,None,246.82213570002932,None,248.91750799992587,None,2,1,0.4752941000042483,248.91750799992587,None,,001,2021_Feb_17_2306,GuessTheSound,2020.2.10,60.033558749298415,
,2,Initial/Doubled/Laugh_A.wav,3,NEW,,,,,,,,,0,31,31,31,,,,,,,,,,,,,,,,,,,,,,,,,,,,,,,,,,,,,,,,,,,,,,,,,,,,,,,,,,,,,,,,,,,,,,,,,,,,,,,,,,,,,,,,,,,,,249.4173725999426,None,250.93365399998146,None,250.9436534999404,None,250.9436534999404,None,253.6506164999446,None,2,1,0.3449862999841571,253.6506164999446,None,,001,2021_Feb_17_2306,GuessTheSound,2020.2.10,60.033558749298415,
,1,Initial/Doubled/Bubbles_A.wav,1,OLD,,,,,,,,,0,32,32,32,,,,,,,,,,,,,,,,,,,,,,,,,,,,,,,,,,,,,,,,,,,,,,,,,,,,,,,,,,,,,,,,,,,,,,,,,,,,,,,,,,,,,,,,,,,,,254.01707479998004,None,255.53370590000412,None,255.5301354000112,None,255.5301354000112,None,257.9506484000012,None,1,1,0.5765286999521777,257.9506484000012,None,,001,2021_Feb_17_2306,GuessTheSound,2020.2.10,60.033558749298415,
,2,Initial/Doubled/Chicken_A.wav,3,NEW,,,,,,,,,0,33,33,33,,,,,,,,,,,,,,,,,,,,,,,,,,,,,,,,,,,,,,,,,,,,,,,,,,,,,,,,,,,,,,,,,,,,,,,,,,,,,,,,,,,,,,,,,,,,,258.55010889994446,None,260.0670323999832,None,260.06628919998184,None,260.06628919998184,None,261.75057319994085,None,2,1,0.6572370000649244,261.75057319994085,None,,001,2021_Feb_17_2306,GuessTheSound,2020.2.10,60.033558749298415,
,2,Test/Lures/Guitar_B.wav,3,NEW,,,,,,,,,0,34,34,34,,,,,,,,,,,,,,,,,,,,,,,,,,,,,,,,,,,,,,,,,,,,,,,,,,,,,,,,,,,,,,,,,,,,,,,,,,,,,,,,,,,,,,,,,,,,,262.4333549999865,None,263.9837135999464,None,263.9785605999641,None,263.9785605999641,None,266.3004137999378,None,2,1,0.322978200041689,266.3004137999378,None,,001,2021_Feb_17_2306,GuessTheSound,2020.2.10,60.033558749298415,
,2,Initial/Repeat/Cello.wav,3,NEW,,,,,,,,,0,35,35,35,,,,,,,,,,,,,,,,,,,,,,,,,,,,,,,,,,,,,,,,,,,,,,,,,,,,,,,,,,,,,,,,,,,,,,,,,,,,,,,,,,,,,,,,,,,,,266.65007430000696,None,268.1666776999366,None,268.17820199998096,None,268.17820199998096,None,271.08409939997364,None,2,1,0.44588160002604127,271.08409939997364,None,,001,2021_Feb_17_2306,GuessTheSound,2020.2.10,60.033558749298415,
,2,Initial/Repeat/Airplane_B.wav,3,NEW,,,,,,,,,0,36,36,36,,,,,,,,,,,,,,,,,,,,,,,,,,,,,,,,,,,,,,,,,,,,,,,,,,,,,,,,,,,,,,,,,,,,,,,,,,,,,,,,,,,,,,,,,,,,,271.55010220000986,None,273.0667628000258,None,273.0790643999353,None,273.0790643999353,None,275.68388829997275,None,2,1,0.41888730006758124,275.68388829997275,None,,001,2021_Feb_17_2306,GuessTheSound,2020.2.10,60.033558749298415,
,2,Cough_D.wav,2,SIMILAR,,,,,,,,,0,37,37,37,,,,,,,,,,,,,,,,,,,,,,,,,,,,,,,,,,,,,,,,,,,,,,,,,,,,,,,,,,,,,,,,,,,,,,,,,,,,,,,,,,,,,,,,,,,,,276.13330749992747,None,277.6503077999689,None,277.64977469993755,None,277.64977469993755,None,279.41710209997837,None,2,1,0.6600672999629751,279.41710209997837,None,,001,2021_Feb_17_2306,GuessTheSound,2020.2.10,60.033558749298415,
,2,Bird_D.wav,2,SIMILAR,,,,,,,,,0,38,38,38,,,,,,,,,,,,,,,,,,,,,,,,,,,,,,,,,,,,,,,,,,,,,,,,,,,,,,,,,,,,,,,,,,,,,,,,,,,,,,,,,,,,,,,,,,,,,280.10522929998115,None,281.65004209994805,None,281.6486981000053,None,281.6486981000053,None,282.98381759994663,None,2,1,0.5309446000028402,282.98381759994663,None,,001,2021_Feb_17_2306,GuessTheSound,2020.2.10,60.033558749298415,
,2,Initial/Repeat/Trumpet_B.wav,3,NEW,,,,,,,,,0,39,39,39,,,,,,,,,,,,,,,,,,,,,,,,,,,,,,,,,,,,,,,,,,,,,,,,,,,,,,,,,,,,,,,,,,,,,,,,,,,,,,,,,,,,,,,,,,,,,283.53452039998956,None,285.1002864999464,None,285.09832420002203,None,285.09832420002203,None,287.4002710999921,None,2,1,0.40575819998048246,287.4002710999921,None,,001,2021_Feb_17_2306,GuessTheSound,2020.2.10,60.033558749298415,
,1,Initial/Repeat/IceDrop.wav,1,OLD,,,,,,,,,0,40,40,40,,,,,,,,,,,,,,,,,,,,,,,,,,,,,,,,,,,,,,,,,,,,,,,,,,,,,,,,,,,,,,,,,,,,,,,,,,,,,,,,,,,,,,,,,,,,,287.8331850999966,None,289.3499335999834,None,289.34744339995086,None,289.34744339995086,None,292.1000042000087,None,1,1,0.4914484000764787,292.1000042000087,None,,001,2021_Feb_17_2306,GuessTheSound,2020.2.10,60.033558749298415,
,2,Initial/Repeat/Sneeze_B.wav,3,NEW,,,,,,,,,0,41,41,41,,,,,,,,,,,,,,,,,,,,,,,,,,,,,,,,,,,,,,,,,,,,,,,,,,,,,,,,,,,,,,,,,,,,,,,,,,,,,,,,,,,,,,,,,,,,,292.6174511000281,None,294.13314510001806,None,294.1313403999666,None,294.1313403999666,None,295.3669819999486,None,2,1,1.0864433000097051,295.3669819999486,None,,001,2021_Feb_17_2306,GuessTheSound,2020.2.10,60.033558749298415,
,2,Initial/NoRepeat/Snore_B.wav,3,NEW,,,,,,,,,0,42,42,42,,,,,,,,,,,,,,,,,,,,,,,,,,,,,,,,,,,,,,,,,,,,,,,,,,,,,,,,,,,,,,,,,,,,,,,,,,,,,,,,,,,,,,,,,,,,,296.4830790000269,None,298.0000911000418,None,298.008187099942,None,298.008187099942,None,300.4334196000127,None,2,1,0.42342670005746186,300.4334196000127,None,,001,2021_Feb_17_2306,GuessTheSound,2020.2.10,60.033558749298415,
,1,Test/Lures/Guitar_B.wav,1,OLD,,,,,,,,,0,43,43,43,,,,,,,,,,,,,,,,,,,,,,,,,,,,,,,,,,,,,,,,,,,,,,,,,,,,,,,,,,,,,,,,,,,,,,,,,,,,,,,,,,,,,,,,,,,,,300.88306100002956,None,302.4001962999348,None,302.3962394000264,None,302.3962394000264,None,304.7169272999745,None,1,1,0.3417065000394359,304.7169272999745,None,,001,2021_Feb_17_2306,GuessTheSound,2020.2.10,60.033558749298415,
,2,Initial/Doubled/Cat_A.wav,3,NEW,,,,,,,,,0,44,44,44,,,,,,,,,,,,,,,,,,,,,,,,,,,,,,,,,,,,,,,,,,,,,,,,,,,,,,,,,,,,,,,,,,,,,,,,,,,,,,,,,,,,,,,,,,,,,305.0842728000134,None,306.60009539993484,None,306.60175979998894,None,306.60175979998894,None,308.01694180001505,None,2,1,0.6490587000735104,308.01694180001505,None,,001,2021_Feb_17_2306,GuessTheSound,2020.2.10,60.033558749298415,
,2,Initial/Repeat/Whistle_A.wav,3,NEW,,,,,,,,,0,45,45,45,,,,,,,,,,,,,,,,,,,,,,,,,,,,,,,,,,,,,,,,,,,,,,,,,,,,,,,,,,,,,,,,,,,,,,,,,,,,,,,,,,,,,,,,,,,,,308.6829711999744,None,310.19969389999756,None,310.20099919999484,None,310.20099919999484,None,311.68325539992657,None,2,1,0.8635130000766367,311.68325539992657,None,,001,2021_Feb_17_2306,GuessTheSound,2020.2.10,60.033558749298415,
,2,Laugh_D.wav,2,SIMILAR,,,,,,,,,0,46,46,46,,,,,,,,,,,,,,,,,,,,,,,,,,,,,,,,,,,,,,,,,,,,,,,,,,,,,,,,,,,,,,,,,,,,,,,,,,,,,,,,,,,,,,,,,,,,,312.5669216000242,None,314.08298090000176,None,314.093723100028,None,314.093723100028,None,317.0169351999648,None,2,1,1.0584048999007791,317.0169351999648,None,,001,2021_Feb_17_2306,GuessTheSound,2020.2.10,60.033558749298415,
,1,Initial/Doubled/Chicken_A.wav,1,OLD,,,,,,,,,0,47,47,47,,,,,,,,,,,,,,,,,,,,,,,,,,,,,,,,,,,,,,,,,,,,,,,,,,,,,,,,,,,,,,,,,,,,,,,,,,,,,,,,,,,,,,,,,,,,,318.1013425999554,None,319.6162390000187,None,319.62411400000565,None,319.62411400000565,None,321.29988880001474,None,1,1,1.8590647999662906,321.29988880001474,None,,001,2021_Feb_17_2306,GuessTheSound,2020.2.10,60.033558749298415,
,2,Test/Foils/Slurp.wav,3,NEW,,,,,,,,,0,48,48,48,,,,,,,,,,,,,,,,,,,,,,,,,,,,,,,,,,,,,,,,,,,,,,,,,,,,,,,,,,,,,,,,,,,,,,,,,,,,,,,,,,,,,,,,,,,,,323.18470149999484,None,324.74966519998856,None,324.75153539993335,None,324.75153539993335,None,327.1333527000388,None,2,1,0.5853491999441758,327.1333527000388,None,,001,2021_Feb_17_2306,GuessTheSound,2020.2.10,60.033558749298415,
,2,Chomp_B.wav,3,NEW,,,,,,,,,0,49,49,49,,,,,,,,,,,,,,,,,,,,,,,,,,,,,,,,,,,,,,,,,,,,,,,,,,,,,,,,,,,,,,,,,,,,,,,,,,,,,,,,,,,,,,,,,,,,,327.7371632999275,None,329.2662608999992,None,329.2702669999562,None,329.2702669999562,None,331.866464599967,None,2,1,0.4134790999814868,331.866464599967,None,,001,2021_Feb_17_2306,GuessTheSound,2020.2.10,60.033558749298415,
,1,Initial/Repeat/Airplane_B.wav,1,OLD,,,,,,,,,0,50,50,50,,,,,,,,,,,,,,,,,,,,,,,,,,,,,,,,,,,,,,,,,,,,,,,,,,,,,,,,,,,,,,,,,,,,,,,,,,,,,,,,,,,,,,,,,,,,,332.29929470003117,None,333.81631840001796,None,333.8132879999466,None,333.8132879999466,None,336.41637019999325,None,1,1,0.4911374000366777,336.41637019999325,None,,001,2021_Feb_17_2306,GuessTheSound,2020.2.10,60.033558749298415,
,2,Test/Foils/Wind_B.wav,3,NEW,,,,,,,,,0,51,51,51,,,,,,,,,,,,,,,,,,,,,,,,,,,,,,,,,,,,,,,,,,,,,,,,,,,,,,,,,,,,,,,,,,,,,,,,,,,,,,,,,,,,,,,,,,,,,336.93627269996796,None,338.4828001999529,None,338.4905341999838,None,338.4905341999838,None,341.23295450001024,None,2,1,0.47711229999549687,341.23295450001024,None,,001,2021_Feb_17_2306,GuessTheSound,2020.2.10,60.033558749298415,
,2,Initial/Repeat/Cup.wav,3,NEW,,,,,,,,,0,52,52,52,,,,,,,,,,,,,,,,,,,,,,,,,,,,,,,,,,,,,,,,,,,,,,,,,,,,,,,,,,,,,,,,,,,,,,,,,,,,,,,,,,,,,,,,,,,,,341.73723119997885,None,343.26622299994347,None,343.26302029995713,None,343.26302029995713,None,344.5998473999789,None,2,1,0.7358948000473902,344.5998473999789,None,,001,2021_Feb_17_2306,GuessTheSound,2020.2.10,60.033558749298415,
,1,Initial/NoRepeat/Snore_B.wav,1,OLD,,,,,,,,,0,53,53,53,,,,,,,,,,,,,,,,,,,,,,,,,,,,,,,,,,,,,,,,,,,,,,,,,,,,,,,,,,,,,,,,,,,,,,,,,,,,,,,,,,,,,,,,,,,,,345.36809679993894,None,346.899627700029,None,346.89609639998525,None,346.89609639998525,None,349.3164563999744,None,1,1,0.3673253000015393,349.3164563999744,None,,001,2021_Feb_17_2306,GuessTheSound,2020.2.10,60.033558749298415,
,2,Whistle_B.wav,2,SIMILAR,,,,,,,,,0,54,54,54,,,,,,,,,,,,,,,,,,,,,,,,,,,,,,,,,,,,,,,,,,,,,,,,,,,,,,,,,,,,,,,,,,,,,,,,,,,,,,,,,,,,,,,,,,,,,349.6993652000092,None,351.2159911999945,None,351.2263857999351,None,351.2263857999351,None,353.966459200019,None,2,1,0.5129671000177041,353.966459200019,None,,001,2021_Feb_17_2306,GuessTheSound,2020.2.10,60.033558749298415,
,1,Initial/Repeat/Sneeze_B.wav,1,OLD,,,,,,,,,0,55,55,55,,,,,,,,,,,,,,,,,,,,,,,,,,,,,,,,,,,,,,,,,,,,,,,,,,,,,,,,,,,,,,,,,,,,,,,,,,,,,,,,,,,,,,,,,,,,,354.4993117999984,None,355.9993376999861,None,356.00825249997433,None,356.00825249997433,None,357.2330241999589,None,1,1,0.6939819999970496,357.2330241999589,None,,001,2021_Feb_17_2306,GuessTheSound,2020.2.10,60.033558749298415,
,1,Initial/Doubled/Cat_A.wav,1,OLD,,,,,,,,,0,56,56,56,,,,,,,,,,,,,,,,,,,,,,,,,,,,,,,,,,,,,,,,,,,,,,,,,,,,,,,,,,,,,,,,,,,,,,,,,,,,,,,,,,,,,,,,,,,,,357.94925950001925,None,359.46605269999714,None,359.46322709997185,None,359.46322709997185,None,360.8829886999447,None,1,1,0.37916969996877015,360.8829886999447,None,,001,2021_Feb_17_2306,GuessTheSound,2020.2.10,60.033558749298415,
,2,Phone_D.wav,3,NEW,,,,,,,,,0,57,57,57,,,,,,,,,,,,,,,,,,,,,,,,,,,,,,,,,,,,,,,,,,,,,,,,,,,,,,,,,,,,,,,,,,,,,,,,,,,,,,,,,,,,,,,,,,,,,361.2825710999314,None,362.79941499994607,None,362.8085418000119,None,362.8085418000119,None,365.34950290003326,None,2,1,0.2759399999631569,365.34950290003326,None,,001,2021_Feb_17_2306,GuessTheSound,2020.2.10,60.033558749298415,
,2,Initial/Repeat/Bagpipe.wav,3,NEW,,,,,,,,,0,58,58,58,,,,,,,,,,,,,,,,,,,,,,,,,,,,,,,,,,,,,,,,,,,,,,,,,,,,,,,,,,,,,,,,,,,,,,,,,,,,,,,,,,,,,,,,,,,,,365.64912119996734,None,367.16575710002803,None,367.1770367999561,None,367.1770367999561,None,369.5495251000393,None,2,1,0.5381603999994695,369.5495251000393,None,,001,2021_Feb_17_2306,GuessTheSound,2020.2.10,60.033558749298415,
,2,Chomp_C.wav,2,SIMILAR,,,,,,,,,0,59,59,59,,,,,,,,,,,,,,,,,,,,,,,,,,,,,,,,,,,,,,,,,,,,,,,,,,,,,,,,,,,,,,,,,,,,,,,,,,,,,,,,,,,,,,,,,,,,,370.11579670000356,None,371.6323628999992,None,371.64309649995994,None,371.64309649995994,None,374.4161320999265,None,2,1,0.7365019000135362,374.4161320999265,None,,001,2021_Feb_17_2306,GuessTheSound,2020.2.10,60.033558749298415,
,2,Test/Foils/Bowlingpins.wav,3,NEW,,,,,,,,,0,60,60,60,,,,,,,,,,,,,,,,,,,,,,,,,,,,,,,,,,,,,,,,,,,,,,,,,,,,,,,,,,,,,,,,,,,,,,,,,,,,,,,,,,,,,,,,,,,,,375.18227899994235,None,376.7324496999849,None,376.73006339999847,None,376.73006339999847,None,379.1661043999484,None,2,1,0.5971355000510812,379.1661043999484,None,,001,2021_Feb_17_2306,GuessTheSound,2020.2.10,60.033558749298415,
,1,Test/Foils/Wind_B.wav,1,OLD,,,,,,,,,0,61,61,61,,,,,,,,,,,,,,,,,,,,,,,,,,,,,,,,,,,,,,,,,,,,,,,,,,,,,,,,,,,,,,,,,,,,,,,,,,,,,,,,,,,,,,,,,,,,,379.78327210003044,None,381.29842329993846,None,381.29833429993596,None,381.29833429993596,None,384.0325679000234,None,1,1,0.6443732000188902,384.0325679000234,None,,001,2021_Feb_17_2306,GuessTheSound,2020.2.10,60.033558749298415,
,2,Initial/NoRepeat/Cow.wav,3,NEW,,,,,,,,,0,62,62,62,,,,,,,,,,,,,,,,,,,,,,,,,,,,,,,,,,,,,,,,,,,,,,,,,,,,,,,,,,,,,,,,,,,,,,,,,,,,,,,,,,,,,,,,,,,,,384.7002102000406,None,386.23222689998806,None,386.23358240001835,None,386.23358240001835,None,388.0660292999819,None,2,1,0.47369620006065816,388.0660292999819,None,,001,2021_Feb_17_2306,GuessTheSound,2020.2.10,60.033558749298415,
,2,Initial/Doubled/Siren_A.wav,3,NEW,,,,,,,,,0,63,63,63,,,,,,,,,,,,,,,,,,,,,,,,,,,,,,,,,,,,,,,,,,,,,,,,,,,,,,,,,,,,,,,,,,,,,,,,,,,,,,,,,,,,,,,,,,,,,388.56562579993624,None,390.09880630003755,None,390.09774689993355,None,390.09774689993355,None,392.8990670000203,None,2,1,0.35025430005043745,392.8990670000203,None,,001,2021_Feb_17_2306,GuessTheSound,2020.2.10,60.033558749298415,
,2,Initial/Repeat/Crow_B.wav,3,NEW,,,,,,,,,0,64,64,64,,,,,,,,,,,,,,,,,,,,,,,,,,,,,,,,,,,,,,,,,,,,,,,,,,,,,,,,,,,,,,,,,,,,,,,,,,,,,,,,,,,,,,,,,,,,,393.26571019995026,None,394.7819514000323,None,394.78966320003383,None,394.78966320003383,None,396.8659774999833,None,2,1,0.46931559999939054,396.8659774999833,None,,001,2021_Feb_17_2306,GuessTheSound,2020.2.10,60.033558749298415,
,1,Initial/Repeat/Bagpipe.wav,1,OLD,,,,,,,,,0,65,65,65,,,,,,,,,,,,,,,,,,,,,,,,,,,,,,,,,,,,,,,,,,,,,,,,,,,,,,,,,,,,,,,,,,,,,,,,,,,,,,,,,,,,,,,,,,,,,397.36532580002677,None,398.88201240000785,None,398.87854309997056,None,398.87854309997056,None,401.24898429994937,None,1,1,0.3954649999504909,401.24898429994937,None,,001,2021_Feb_17_2306,GuessTheSound,2020.2.10,60.033558749298415,
,1,Initial/Repeat/Cup.wav,1,OLD,,,,,,,,,0,66,66,66,,,,,,,,,,,,,,,,,,,,,,,,,,,,,,,,,,,,,,,,,,,,,,,,,,,,,,,,,,,,,,,,,,,,,,,,,,,,,,,,,,,,,,,,,,,,,401.6653878999641,None,403.1655124000041,None,403.1742855999619,None,403.1742855999619,None,404.4989491000306,None,1,1,0.3751320999581367,404.4989491000306,None,,001,2021_Feb_17_2306,GuessTheSound,2020.2.10,60.033558749298415,
,2,Test/Foils/Bullfrog.wav,3,NEW,,,,,,,,,0,67,67,67,,,,,,,,,,,,,,,,,,,,,,,,,,,,,,,,,,,,,,,,,,,,,,,,,,,,,,,,,,,,,,,,,,,,,,,,,,,,,,,,,,,,,,,,,,,,,404.8985222999472,None,406.4320592999691,None,406.44207180000376,None,406.44207180000376,None,409.34897559997626,None,2,1,0.5847418999765068,409.34897559997626,None,,001,2021_Feb_17_2306,GuessTheSound,2020.2.10,60.033558749298415,
,2,Initial/Repeat/Phone_A.wav,2,SIMILAR,,,,,,,,,0,68,68,68,,,,,,,,,,,,,,,,,,,,,,,,,,,,,,,,,,,,,,,,,,,,,,,,,,,,,,,,,,,,,,,,,,,,,,,,,,,,,,,,,,,,,,,,,,,,,409.9515158999711,None,411.4818756999914,None,411.48581470001955,None,411.48581470001955,None,414.43245289998595,None,2,1,0.3291746999602765,414.43245289998595,None,,001,2021_Feb_17_2306,GuessTheSound,2020.2.10,60.033558749298415,
,2,Initial/Doubled/HairDryer_A.wav,3,NEW,,,,,,,,,0,69,69,69,,,,,,,,,,,,,,,,,,,,,,,,,,,,,,,,,,,,,,,,,,,,,,,,,,,,,,,,,,,,,,,,,,,,,,,,,,,,,,,,,,,,,,,,,,,,,414.7836365000112,None,416.33196139994544,None,416.32727909996174,None,416.32727909996174,None,418.898835400003,None,2,1,0.32975439995061606,418.898835400003,None,,001,2021_Feb_17_2306,GuessTheSound,2020.2.10,60.033558749298415,
,2,Initial/Doubled/Cuckoo_A.wav,3,NEW,,,,,,,,,0,70,70,70,,,,,,,,,,,,,,,,,,,,,,,,,,,,,,,,,,,,,,,,,,,,,,,,,,,,,,,,,,,,,,,,,,,,,,,,,,,,,,,,,,,,,,,,,,,,,419.24897870002314,None,420.7817947000265,None,420.77913479995914,None,420.77913479995914,None,423.2656283000251,None,2,1,0.2869502999819815,423.2656283000251,None,,001,2021_Feb_17_2306,GuessTheSound,2020.2.10,60.033558749298415,
,1,Initial/NoRepeat/Cow.wav,1,OLD,,,,,,,,,0,71,71,71,,,,,,,,,,,,,,,,,,,,,,,,,,,,,,,,,,,,,,,,,,,,,,,,,,,,,,,,,,,,,,,,,,,,,,,,,,,,,,,,,,,,,,,,,,,,,423.5819627000019,None,425.09867859997325,None,425.09563879994676,None,425.09563879994676,None,426.9315733000403,None,1,1,0.39232099999208003,426.9315733000403,None,,001,2021_Feb_17_2306,GuessTheSound,2020.2.10,60.033558749298415,
,2,Initial/NoRepeat/Hammer_A.wav,3,NEW,,,,,,,,,0,72,72,72,,,,,,,,,,,,,,,,,,,,,,,,,,,,,,,,,,,,,,,,,,,,,,,,,,,,,,,,,,,,,,,,,,,,,,,,,,,,,,,,,,,,,,,,,,,,,427.3481869000243,None,428.8649730999489,None,428.8637653000187,None,428.8637653000187,None,431.3319929999998,None,2,1,0.682323900051415,431.3319929999998,None,,001,2021_Feb_17_2306,GuessTheSound,2020.2.10,60.033558749298415,
,2,Initial/NoRepeat/Footsteps_B.wav,3,NEW,,,,,,,,,0,73,73,73,,,,,,,,,,,,,,,,,,,,,,,,,,,,,,,,,,,,,,,,,,,,,,,,,,,,,,,,,,,,,,,,,,,,,,,,,,,,,,,,,,,,,,,,,,,,,432.0317185999593,None,433.5313974999823,None,433.5339962999569,None,433.5339962999569,None,436.1983001999324,None,2,1,0.5472444000188261,436.1983001999324,None,,001,2021_Feb_17_2306,GuessTheSound,2020.2.10,60.033558749298415,
,2,Initial/Doubled/Dog_A.wav,3,NEW,,,,,,,,,0,74,74,74,,,,,,,,,,,,,,,,,,,,,,,,,,,,,,,,,,,,,,,,,,,,,,,,,,,,,,,,,,,,,,,,,,,,,,,,,,,,,,,,,,,,,,,,,,,,,436.76808119995985,None,438.29812480001715,None,438.2931978999404,None,438.2931978999404,None,440.89878089993726,None,2,1,0.32583359989803284,440.89878089993726,None,,001,2021_Feb_17_2306,GuessTheSound,2020.2.10,60.033558749298415,
,2,Initial/Doubled/Clap_A.wav,3,NEW,,,,,,,,,0,75,75,75,,,,,,,,,,,,,,,,,,,,,,,,,,,,,,,,,,,,,,,,,,,,,,,,,,,,,,,,,,,,,,,,,,,,,,,,,,,,,,,,,,,,,,,,,,,,,441.24958509998396,None,442.78170630002865,None,442.79441570001654,None,442.79441570001654,None,445.29856669995934,None,2,1,0.3938666000030935,445.29856669995934,None,,001,2021_Feb_17_2306,GuessTheSound,2020.2.10,60.033558749298415,
,2,Initial/NoRepeat/Fireworks.wav,3,NEW,,,,,,,,,0,76,76,76,,,,,,,,,,,,,,,,,,,,,,,,,,,,,,,,,,,,,,,,,,,,,,,,,,,,,,,,,,,,,,,,,,,,,,,,,,,,,,,,,,,,,,,,,,,,,445.7149434000021,None,447.2317093000049,None,447.2429388000164,None,447.2429388000164,None,450.21549380000215,None,2,1,0.29358369996771216,450.21549380000215,None,,001,2021_Feb_17_2306,GuessTheSound,2020.2.10,60.033558749298415,
,1,Test/Foils/Bullfrog.wav,1,OLD,,,,,,,,,0,77,77,77,,,,,,,,,,,,,,,,,,,,,,,,,,,,,,,,,,,,,,,,,,,,,,,,,,,,,,,,,,,,,,,,,,,,,,,,,,,,,,,,,,,,,,,,,,,,,450.53538839996327,None,452.0650240999414,None,452.0588010000065,None,452.0588010000065,None,454.9655451999279,None,1,1,0.6629304999951273,454.9655451999279,None,,001,2021_Feb_17_2306,GuessTheSound,2020.2.10,60.033558749298415,
,2,Siren_C.wav,2,SIMILAR,,,,,,,,,0,78,78,78,,,,,,,,,,,,,,,,,,,,,,,,,,,,,,,,,,,,,,,,,,,,,,,,,,,,,,,,,,,,,,,,,,,,,,,,,,,,,,,,,,,,,,,,,,,,,455.64836470002774,None,457.1646618999541,None,457.170889699948,None,457.170889699948,None,459.6484946999699,None,2,1,0.4000611000228673,459.6484946999699,None,,001,2021_Feb_17_2306,GuessTheSound,2020.2.10,60.033558749298415,
,2,Goat_A.wav,3,NEW,,,,,,,,,0,79,79,79,,,,,,,,,,,,,,,,,,,,,,,,,,,,,,,,,,,,,,,,,,,,,,,,,,,,,,,,,,,,,,,,,,,,,,,,,,,,,,,,,,,,,,,,,,,,,460.06650239997543,None,461.5979494000087,None,461.60721729998477,None,461.60721729998477,None,464.1152778000105,None,2,1,0.3932548000011593,464.1152778000105,None,,001,2021_Feb_17_2306,GuessTheSound,2020.2.10,60.033558749298415,
,1,Initial/Doubled/HairDryer_A.wav,1,OLD,,,,,,,,,0,80,80,80,,,,,,,,,,,,,,,,,,,,,,,,,,,,,,,,,,,,,,,,,,,,,,,,,,,,,,,,,,,,,,,,,,,,,,,,,,,,,,,,,,,,,,,,,,,,,464.5330372999888,None,466.047984199971,None,466.0561105000088,None,466.0561105000088,None,468.63166700000875,None,1,1,0.02273960004094988,468.63166700000875,None,,001,2021_Feb_17_2306,GuessTheSound,2020.2.10,60.033558749298415,
,1,Initial/Doubled/Cuckoo_A.wav,1,OLD,,,,,,,,,0,81,81,81,,,,,,,,,,,,,,,,,,,,,,,,,,,,,,,,,,,,,,,,,,,,,,,,,,,,,,,,,,,,,,,,,,,,,,,,,,,,,,,,,,,,,,,,,,,,,468.682049099938,None,470.19815170001243,None,470.19543890003115,None,470.19543890003115,None,472.68142109992914,None,2,0,0.6571795999770984,472.68142109992914,None,,001,2021_Feb_17_2306,GuessTheSound,2020.2.10,60.033558749298415,
,2,Initial/Doubled/Coin_A.wav,3,NEW,,,,,,,,,0,82,82,82,,,,,,,,,,,,,,,,,,,,,,,,,,,,,,,,,,,,,,,,,,,,,,,,,,,,,,,,,,,,,,,,,,,,,,,,,,,,,,,,,,,,,,,,,,,,,473.3643261999823,None,474.8804869000335,None,474.8769510999555,None,474.8769510999555,None,476.49735670001246,None,2,1,0.7352472000056878,476.49735670001246,None,,001,2021_Feb_17_2306,GuessTheSound,2020.2.10,60.033558749298415,
,2,Initial/Repeat/Howl.wav,3,NEW,,,,,,,,,0,83,83,83,,,,,,,,,,,,,,,,,,,,,,,,,,,,,,,,,,,,,,,,,,,,,,,,,,,,,,,,,,,,,,,,,,,,,,,,,,,,,,,,,,,,,,,,,,,,,477.2635986999376,None,478.79794709996787,None,478.7922724999953,None,478.7922724999953,None,481.5482983000111,None,2,1,0.6758484999882057,481.5482983000111,None,,001,2021_Feb_17_2306,GuessTheSound,2020.2.10,60.033558749298415,
,2,Initial/NoRepeat/Helicopter_A.wav,3,NEW,,,,,,,,,0,84,84,84,,,,,,,,,,,,,,,,,,,,,,,,,,,,,,,,,,,,,,,,,,,,,,,,,,,,,,,,,,,,,,,,,,,,,,,,,,,,,,,,,,,,,,,,,,,,,482.2491883999901,None,483.78136990002827,None,483.7872878999915,None,483.7872878999915,None,486.2484222999774,None,2,1,0.46529399999417365,486.2484222999774,None,,001,2021_Feb_17_2306,GuessTheSound,2020.2.10,60.033558749298415,
,2,Initial/Repeat/ManWhistle.wav,3,NEW,,,,,,,,,0,85,85,85,,,,,,,,,,,,,,,,,,,,,,,,,,,,,,,,,,,,,,,,,,,,,,,,,,,,,,,,,,,,,,,,,,,,,,,,,,,,,,,,,,,,,,,,,,,,,486.731537799933,None,488.2480442999397,None,488.255621099961,None,488.255621099961,None,490.4813597999746,None,2,1,0.3302781000966206,490.4813597999746,None,,001,2021_Feb_17_2306,GuessTheSound,2020.2.10,60.033558749298415,
,1,Initial/NoRepeat/Footsteps_B.wav,1,OLD,,,,,,,,,0,86,86,86,,,,,,,,,,,,,,,,,,,,,,,,,,,,,,,,,,,,,,,,,,,,,,,,,,,,,,,,,,,,,,,,,,,,,,,,,,,,,,,,,,,,,,,,,,,,,490.8325422999915,None,492.34769650003875,None,492.354344899999,None,492.354344899999,None,495.0149194999831,None,1,1,0.7438728000270203,495.0149194999831,None,,001,2021_Feb_17_2306,GuessTheSound,2020.2.10,60.033558749298415,
,2,Initial/Doubled/Growl_A.wav,3,NEW,,,,,,,,,0,87,87,87,,,,,,,,,,,,,,,,,,,,,,,,,,,,,,,,,,,,,,,,,,,,,,,,,,,,,,,,,,,,,,,,,,,,,,,,,,,,,,,,,,,,,,,,,,,,,495.7808731999248,None,497.2979628999485,None,497.3047488000011,None,497.3047488000011,None,500.1478737000143,None,2,1,0.4995926999254152,500.1478737000143,None,,001,2021_Feb_17_2306,GuessTheSound,2020.2.10,60.033558749298415,
,1,Initial/Doubled/Clap_A.wav,1,OLD,,,,,,,,,0,88,88,88,,,,,,,,,,,,,,,,,,,,,,,,,,,,,,,,,,,,,,,,,,,,,,,,,,,,,,,,,,,,,,,,,,,,,,,,,,,,,,,,,,,,,,,,,,,,,500.6651604999788,None,502.1810930000386,None,502.17757329996675,None,502.17757329996675,None,504.6812925999984,None,1,1,0.5573973000282422,504.6812925999984,None,,001,2021_Feb_17_2306,GuessTheSound,2020.2.10,60.033558749298415,
,2,Dog_D.wav,2,SIMILAR,,,,,,,,,0,89,89,89,,,,,,,,,,,,,,,,,,,,,,,,,,,,,,,,,,,,,,,,,,,,,,,,,,,,,,,,,,,,,,,,,,,,,,,,,,,,,,,,,,,,,,,,,,,,,505.2642814000137,None,506.78095099998177,None,506.7768088999437,None,506.7768088999437,None,508.7979085999541,None,2,1,1.0008694999851286,508.7979085999541,None,,001,2021_Feb_17_2306,GuessTheSound,2020.2.10,60.033558749298415,
,1,Initial/NoRepeat/Fireworks.wav,1,OLD,,,,,,,,,0,90,90,90,,,,,,,,,,,,,,,,,,,,,,,,,,,,,,,,,,,,,,,,,,,,,,,,,,,,,,,,,,,,,,,,,,,,,,,,,,,,,,,,,,,,,,,,,,,,,509.815128599992,None,511.33089789997325,None,511.32749159995,None,511.32749159995,None,514.2980682000052,None,1,1,0.41336250002495944,514.2980682000052,None,,001,2021_Feb_17_2306,GuessTheSound,2020.2.10,60.033558749298415,
,2,Test/Foils/Camera.wav,3,NEW,,,,,,,,,0,91,91,91,,,,,,,,,,,,,,,,,,,,,,,,,,,,,,,,,,,,,,,,,,,,,,,,,,,,,,,,,,,,,,,,,,,,,,,,,,,,,,,,,,,,,,,,,,,,,514.7316760999383,None,516.2641787000001,None,516.2728280000156,None,516.2728280000156,None,517.2479136999464,None,2,1,1.5217924999305978,517.2479136999464,None,,001,2021_Feb_17_2306,GuessTheSound,2020.2.10,60.033558749298415,
,2,Piano_B.wav,3,NEW,,,,,,,,,0,92,92,92,,,,,,,,,,,,,,,,,,,,,,,,,,,,,,,,,,,,,,,,,,,,,,,,,,,,,,,,,,,,,,,,,,,,,,,,,,,,,,,,,,,,,,,,,,,,,518.7976769999368,None,520.3141725999769,None,520.3227782000322,None,520.3227782000322,None,522.9810881000012,None,2,1,0.5780435000779107,522.9810881000012,None,,001,2021_Feb_17_2306,GuessTheSound,2020.2.10,60.033558749298415,
,2,Initial/Repeat/PaperRip.wav,3,NEW,,,,,,,,,0,93,93,93,,,,,,,,,,,,,,,,,,,,,,,,,,,,,,,,,,,,,,,,,,,,,,,,,,,,,,,,,,,,,,,,,,,,,,,,,,,,,,,,,,,,,,,,,,,,,523.581822099979,None,525.097518999991,None,525.1023001000285,None,525.1023001000285,None,526.6976151999552,None,2,1,0.580304800067097,526.6976151999552,None,,001,2021_Feb_17_2306,GuessTheSound,2020.2.10,60.033558749298415,
,2,Initial/NoRepeat/Droplet_B.wav,3,NEW,,,,,,,,,0,94,94,94,,,,,,,,,,,,,,,,,,,,,,,,,,,,,,,,,,,,,,,,,,,,,,,,,,,,,,,,,,,,,,,,,,,,,,,,,,,,,,,,,,,,,,,,,,,,,527.2985888000112,None,528.831143799983,None,528.8346141999355,None,528.8346141999355,None,530.9979072000133,None,2,1,0.5095436000265181,530.9979072000133,None,,001,2021_Feb_17_2306,GuessTheSound,2020.2.10,60.033558749298415,
,1,Initial/NoRepeat/Helicopter_A.wav,1,OLD,,,,,,,,,0,95,95,95,,,,,,,,,,,,,,,,,,,,,,,,,,,,,,,,,,,,,,,,,,,,,,,,,,,,,,,,,,,,,,,,,,,,,,,,,,,,,,,,,,,,,,,,,,,,,531.5324359999504,None,533.0473311000038,None,533.0547643000027,None,533.0547643000027,None,535.5145267000189,None,1,1,0.35729740001261234,535.5145267000189,None,,001,2021_Feb_17_2306,GuessTheSound,2020.2.10,60.033558749298415,
,2,CarStart_D.wav,3,NEW,,,,,,,,,0,96,96,96,,,,,,,,,,,,,,,,,,,,,,,,,,,,,,,,,,,,,,,,,,,,,,,,,,,,,,,,,,,,,,,,,,,,,,,,,,,,,,,,,,,,,,,,,,,,,535.8972825999372,None,537.4141534000403,None,537.4244126999984,None,537.4244126999984,None,540.4810509999515,None,2,1,0.3556530000641942,540.4810509999515,None,,001,2021_Feb_17_2306,GuessTheSound,2020.2.10,60.033558749298415,
,1,Initial/Repeat/Howl.wav,1,OLD,,,,,,,,,0,97,97,97,,,,,,,,,,,,,,,,,,,,,,,,,,,,,,,,,,,,,,,,,,,,,,,,,,,,,,,,,,,,,,,,,,,,,,,,,,,,,,,,,,,,,,,,,,,,,540.8637852999382,None,542.3806744999486,None,542.3779705000343,None,542.3779705000343,None,545.130839999998,None,1,1,0.4625636999262497,545.130839999998,None,,001,2021_Feb_17_2306,GuessTheSound,2020.2.10,60.033558749298415,
,2,Growl_B.wav,2,SIMILAR,,,,,,,,,0,98,98,98,,,,,,,,,,,,,,,,,,,,,,,,,,,,,,,,,,,,,,,,,,,,,,,,,,,,,,,,,,,,,,,,,,,,,,,,,,,,,,,,,,,,,,,,,,,,,545.6142165999627,None,547.1309773000423,None,547.1376390999649,None,547.1376390999649,None,550.1143227999564,None,2,1,0.5196316000074148,550.1143227999564,None,,001,2021_Feb_17_2306,GuessTheSound,2020.2.10,60.033558749298415,
,2,Goat_C.wav,2,SIMILAR,,,,,,,,,0,99,99,99,,,,,,,,,,,,,,,,,,,,,,,,,,,,,,,,,,,,,,,,,,,,,,,,,,,,,,,,,,,,,,,,,,,,,,,,,,,,,,,,,,,,,,,,,,,,,550.6637106999988,None,552.1807339999825,None,552.1873057000339,None,552.1873057000339,None,553.9973196999636,None,2,1,1.6126869999570772,553.9973196999636,None,,001,2021_Feb_17_2306,GuessTheSound,2020.2.10,60.033558749298415,
,2,Test/Foils/Donkey.wav,3,NEW,,,,,,,,,0,100,100,100,,,,,,,,,,,,,,,,,,,,,,,,,,,,,,,,,,,,,,,,,,,,,,,,,,,,,,,,,,,,,,,,,,,,,,,,,,,,,,,,,,,,,,,,,,,,,555.6305768999737,None,557.1807160000084,None,557.1775222999277,None,557.1775222999277,None,559.8973081000149,None,2,1,3.0202431000070646,559.8973081000149,None,,001,2021_Feb_17_2306,GuessTheSound,2020.2.10,60.033558749298415,
,1,Initial/Repeat/PaperRip.wav,1,OLD,,,,,,,,,0,101,101,101,,,,,,,,,,,,,,,,,,,,,,,,,,,,,,,,,,,,,,,,,,,,,,,,,,,,,,,,,,,,,,,,,,,,,,,,,,,,,,,,,,,,,,,,,,,,,562.947089000023,None,564.4637011000189,None,564.4580536999274,None,564.4580536999274,None,566.0475222000387,None,1,1,2.7706824999768287,566.0475222000387,None,,001,2021_Feb_17_2306,GuessTheSound,2020.2.10,60.033558749298415,
,2,ManWhistle_C.wav,2,SIMILAR,,,,,,,,,0,102,102,102,,,,,,,,,,,,,,,,,,,,,,,,,,,,,,,,,,,,,,,,,,,,,,,,,,,,,,,,,,,,,,,,,,,,,,,,,,,,,,,,,,,,,,,,,,,,,568.847103200038,None,570.3636233000318,None,570.3640960999765,None,570.3640960999765,None,571.8639935000101,None,2,1,1.21483250008896,571.8639935000101,None,,001,2021_Feb_17_2306,GuessTheSound,2020.2.10,60.033558749298415,
,2,Test/Foils/Horse.wav,3,NEW,,,,,,,,,0,103,103,103,,,,,,,,,,,,,,,,,,,,,,,,,,,,,,,,,,,,,,,,,,,,,,,,,,,,,,,,,,,,,,,,,,,,,,,,,,,,,,,,,,,,,,,,,,,,,573.0988354999572,None,574.647289999947,None,574.6530983999837,None,574.6530983999837,None,576.8474598999601,None,2,1,0.5755346999503672,576.8474598999601,None,,001,2021_Feb_17_2306,GuessTheSound,2020.2.10,60.033558749298415,
,2,Initial/Repeat/Printer.wav,3,NEW,,,,,,,,,0,104,104,104,,,,,,,,,,,,,,,,,,,,,,,,,,,,,,,,,,,,,,,,,,,,,,,,,,,,,,,,,,,,,,,,,,,,,,,,,,,,,,,,,,,,,,,,,,,,,577.4478874999331,None,578.9802504999564,None,578.9870188999921,None,578.9870188999921,None,581.7473581000231,None,2,1,1.3917253999970853,581.7473581000231,None,,001,2021_Feb_17_2306,GuessTheSound,2020.2.10,60.033558749298415,
,1,Test/Foils/Camera.wav,1,OLD,,,,,,,,,0,105,105,105,,,,,,,,,,,,,,,,,,,,,,,,,,,,,,,,,,,,,,,,,,,,,,,,,,,,,,,,,,,,,,,,,,,,,,,,,,,,,,,,,,,,,,,,,,,,,583.1650304000359,None,584.6801921000239,None,584.6889562000288,None,584.6889562000288,None,585.6637514999602,None,1,1,0.8592908000573516,585.6637514999602,None,,001,2021_Feb_17_2306,GuessTheSound,2020.2.10,60.033558749298415,
,1,Initial/NoRepeat/Droplet_B.wav,1,OLD,,,,,,,,,0,106,106,106,,,,,,,,,,,,,,,,,,,,,,,,,,,,,,,,,,,,,,,,,,,,,,,,,,,,,,,,,,,,,,,,,,,,,,,,,,,,,,,,,,,,,,,,,,,,,586.5488869999535,None,588.0638954999391,None,588.0744413000066,None,588.0744413000066,None,590.2304310000036,None,1,1,0.4214794000145048,590.2304310000036,None,,001,2021_Feb_17_2306,GuessTheSound,2020.2.10,60.033558749298415,
,2,Test/Foils/Airhorn.wav,3,NEW,,,,,,,,,0,107,107,107,,,,,,,,,,,,,,,,,,,,,,,,,,,,,,,,,,,,,,,,,,,,,,,,,,,,,,,,,,,,,,,,,,,,,,,,,,,,,,,,,,,,,,,,,,,,,590.6800452999305,None,592.2134616999655,None,592.2217767999973,None,592.2217767999973,None,594.778865500004,None,2,1,0.5680989000247791,594.778865500004,None,,001,2021_Feb_17_2306,GuessTheSound,2020.2.10,60.033558749298415,
,2,Test/Foils/Steam.wav,3,NEW,,,,,,,,,0,108,108,108,,,,,,,,,,,,,,,,,,,,,,,,,,,,,,,,,,,,,,,,,,,,,,,,,,,,,,,,,,,,,,,,,,,,,,,,,,,,,,,,,,,,,,,,,,,,,595.3625877000159,None,596.912408999959,None,596.9100559999933,None,596.9100559999933,None,599.4297358000185,None,2,1,0.5089675000635907,599.4297358000185,None,,001,2021_Feb_17_2306,GuessTheSound,2020.2.10,60.033558749298415,
,2,Initial/Doubled/CarStart_A.wav,2,SIMILAR,,,,,,,,,0,109,109,109,,,,,,,,,,,,,,,,,,,,,,,,,,,,,,,,,,,,,,,,,,,,,,,,,,,,,,,,,,,,,,,,,,,,,,,,,,,,,,,,,,,,,,,,,,,,,599.9648012999678,None,601.5133821999888,None,601.5219609999331,None,601.5219609999331,None,604.0303112999536,None,2,1,0.4315124999266118,604.0303112999536,None,,001,2021_Feb_17_2306,GuessTheSound,2020.2.10,60.033558749298415,
,1,Test/Foils/Donkey.wav,1,OLD,,,,,,,,,0,110,110,110,,,,,,,,,,,,,,,,,,,,,,,,,,,,,,,,,,,,,,,,,,,,,,,,,,,,,,,,,,,,,,,,,,,,,,,,,,,,,,,,,,,,,,,,,,,,,604.4801063999766,None,605.9967208999908,None,605.9946170999901,None,605.9946170999901,None,608.71367680002,None,1,1,0.35067730001173913,608.71367680002,None,,001,2021_Feb_17_2306,GuessTheSound,2020.2.10,60.033558749298415,
,2,Piano_C.wav,2,SIMILAR,,,,,,,,,0,111,111,111,,,,,,,,,,,,,,,,,,,,,,,,,,,,,,,,,,,,,,,,,,,,,,,,,,,,,,,,,,,,,,,,,,,,,,,,,,,,,,,,,,,,,,,,,,,,,609.0804848000407,None,610.6136873999611,None,610.6095329000382,None,610.6095329000382,None,613.5801877999911,None,2,1,0.8526888000778854,613.5801877999911,None,,001,2021_Feb_17_2306,GuessTheSound,2020.2.10,60.033558749298415,
