SoundFile,Correct,Correct2,Type,Trial,trials.thisRepN,trials.thisTrialN,trials.thisN,trials.thisIndex,InstructionTxt.started,InstructionTxt.stopped,WelcomContinue.started,WelcomContinue.stopped,VolumeBeginTxt.started,VolumeBeginTxt.stopped,VolumeContinueKey.keys,VolumeContinueKey.rt,VolumeContinueKey.started,VolumeContinueKey.stopped,text.started,text.stopped,Music.started,Music.stopped,AdjustContinue.started,AdjustContinue.stopped,HeadphoneCheckBeing.started,HeadphoneCheckBeing.stopped,HeadphoneContinue.started,HeadphoneContinue.stopped,HeadphoneContinueKey.keys,HeadphoneContinueKey.rt,HeadphoneContinueKey.started,HeadphoneContinueKey.stopped,WelcomeTxt1.started,WelcomeTxt1.stopped,ContinueKey1.started,ContinueKey1.stopped,ContinueResp.keys,ContinueResp.rt,ContinueResp.started,ContinueResp.stopped,Welcome2Txt.started,Welcome2Txt.stopped,Wel2ContinueKey.keys,Wel2ContinueKey.rt,Wel2ContinueKey.started,Wel2ContinueKey.stopped,Continue2.started,Continue2.stopped,InstructionTxt2.started,InstructionTxt2.stopped,WelcomeContinue2.started,WelcomeContinue2.stopped,WelcomeContinueKey2.keys,WelcomeContinueKey2.rt,WelcomeContinueKey2.started,WelcomeContinueKey2.stopped,StartTxt.started,StartTxt.stopped,StartTast.keys,StartTast.rt,StartTast.started,StartTast.stopped,ContinueStart.started,ContinueStart.stopped,no_3.started,no_3.stopped,TargetSound.started,TargetSound.stopped,Cross.started,Cross.stopped,ItemNumber.started,ItemNumber.stopped,MSTQuestion.started,MSTQuestion.stopped,MSTResp.keys,MSTResp.corr,MSTResp.rt,MSTResp.started,MSTResp.stopped,participant,session,date,expName,psychopyVersion,frameRate,
,,,,,,,,,18.075826599961147,None,18.075826599961147,None,21.711635699961334,None,space,0.6485975000541657,21.711635699961334,None,,,,,,,,,,,,,,,,,,,,,,,,,,,,,,,,,,,,,,,,,,,,,,,,,,,,,,,,,,,,,,,001,2021_Mar_01_2138,GuessTheSound,2020.2.10,60.08824558388115,
,,,,,,,,,,,,,,,,,,,22.429204399930313,None,22.42722819992341,None,22.429204399930313,None,23.484064599964768,None,23.484064599964768,None,space,0.5417285999283195,23.484064599964768,None,,,,,,,,,,,,,,,,,,,,,,,,,,,,,,,,,,,,,,,,,,,,,,,,,001,2021_Mar_01_2138,GuessTheSound,2020.2.10,60.08824558388115,
,,,,,,,,,,,,,,,,,,,,,,,,,,,,,,,,,24.04811709979549,None,24.04811709979549,None,space,0.4327585999853909,24.04811709979549,None,,,,,,,,,,,,,,,,,,,,,,,,,,,,,,,,,,,,,,,,,001,2021_Mar_01_2138,GuessTheSound,2020.2.10,60.08824558388115,
,,,,,,,,,,,,,,,,,,,,,,,,,,,,,,,,,,,,,,,,,24.516680399887264,None,space,0.39736329996958375,24.516680399887264,None,,,,,,,,,,,,,,,,,,,,,,,,,,,,,,,,,,,001,2021_Mar_01_2138,GuessTheSound,2020.2.10,60.08824558388115,
,,,,,,,,,,,,,,,,,,,,,,,,,,,,,,,,,,,,,,,,,,,,,,,24.516680399887264,None,24.95056249992922,None,24.95056249992922,None,space,0.4128221001010388,24.95056249992922,None,,,,,,,,,,,,,,,,,,,,,,,,,001,2021_Mar_01_2138,GuessTheSound,2020.2.10,60.08824558388115,
,,,,,,,,,,,,,,,,,,,,,,,,,,,,,,,,,,,,,,,,,,,,,,,,,,,,,,,,,25.40419809985906,None,space,0.8178217001259327,25.40419809985906,None,,,,,,,,,,,,,,,,,,,001,2021_Mar_01_2138,GuessTheSound,2020.2.10,60.08824558388115,
Initial/Repeat/ManWhistle.wav,2,3,NEW,B,0,0,0,0,,,,,,,,,,,,,,,,,,,,,,,,,,,,,,,,,,,,,,,,,,,,,,,,,,,,,,,25.40419809985906,None,26.45017799991183,None,27.810135099943725,None,27.819560899864882,None,27.819560899864882,None,30.04505359986797,None,3,1,0.31550980010069907,30.04505359986797,None,,001,2021_Mar_01_2138,GuessTheSound,2020.2.10,60.08824558388115,
Siren_E.wav,2,3,NEW,B,0,1,1,1,,,,,,,,,,,,,,,,,,,,,,,,,,,,,,,,,,,,,,,,,,,,,,,,,,,,,,,,,30.381143999984488,None,31.910315799945963,None,31.914939999813214,None,31.914939999813214,None,34.12730699987151,None,3,1,0.6178450000006706,34.12730699987151,None,,001,2021_Mar_01_2138,GuessTheSound,2020.2.10,60.08824558388115,
Footsteps_G.wav,2,3,NEW,B,0,2,2,2,,,,,,,,,,,,,,,,,,,,,,,,,,,,,,,,,,,,,,,,,,,,,,,,,,,,,,,,,34.780274299904704,None,36.3252405999694,None,36.32804119982757,None,36.32804119982757,None,38.54312939988449,None,3,1,0.14448569994419813,38.54312939988449,None,,001,2021_Mar_01_2138,GuessTheSound,2020.2.10,60.08824558388115,
Initial/Doubled/Chicken_A.wav,2,3,NEW,B,0,3,3,3,,,,,,,,,,,,,,,,,,,,,,,,,,,,,,,,,,,,,,,,,,,,,,,,,,,,,,,,,38.70881629991345,None,40.226139799878,None,40.230446399888024,None,40.230446399888024,None,41.91072199982591,None,3,1,0.05450410000048578,41.91072199982591,None,,001,2021_Mar_01_2138,GuessTheSound,2020.2.10,60.08824558388115,
Phone_D.wav,2,3,NEW,B,0,4,4,4,,,,,,,,,,,,,,,,,,,,,,,,,,,,,,,,,,,,,,,,,,,,,,,,,,,,,,,,,41.99656629981473,None,43.52660949989222,None,43.534095499897376,None,43.534095499897376,None,45.760741899954155,None,3,1,1.1792066001798958,45.760741899954155,None,,001,2021_Mar_01_2138,GuessTheSound,2020.2.10,60.08824558388115,
Initial/Repeat/Cup.wav,2,3,NEW,B,0,5,5,5,,,,,,,,,,,,,,,,,,,,,,,,,,,,,,,,,,,,,,,,,,,,,,,,,,,,,,,,,46.95957259996794,None,48.47651299992576,None,48.48136849980801,None,48.48136849980801,None,49.8103606000077,None,3,1,0.23909909999929368,49.8103606000077,None,,001,2021_Mar_01_2138,GuessTheSound,2020.2.10,60.08824558388115,
Test/Foils/Bowlingpins.wav,2,3,NEW,B,0,6,6,6,,,,,,,,,,,,,,,,,,,,,,,,,,,,,,,,,,,,,,,,,,,,,,,,,,,,,,,,,50.079978599911556,None,51.60993340001441,None,51.612955999793485,None,51.612955999793485,None,53.82756269979291,None,3,1,5.195241499925032,53.82756269979291,None,,001,2021_Mar_01_2138,GuessTheSound,2020.2.10,60.08824558388115,
Bird_E.wav,2,3,NEW,B,0,7,7,7,,,,,,,,,,,,,,,,,,,,,,,,,,,,,,,,,,,,,,,,,,,,,,,,,,,,,,,,,59.04433499998413,None,60.576041999924925,None,60.57403659983538,None,60.57403659983538,None,62.510496999835595,None,3,1,0.3576553000602871,62.510496999835595,None,,001,2021_Mar_01_2138,GuessTheSound,2020.2.10,60.08824558388115,
Initial/Doubled/HairDryer_A.wav,2,3,NEW,B,0,8,8,8,,,,,,,,,,,,,,,,,,,,,,,,,,,,,,,,,,,,,,,,,,,,,,,,,,,,,,,,,62.89352279994637,None,64.42649539983832,None,64.4211758999154,None,64.4211758999154,None,66.64558869996108,None,3,1,0.41035809996537864,66.64558869996108,None,,001,2021_Mar_01_2138,GuessTheSound,2020.2.10,60.08824558388115,
Faucet_D.wav,2,3,NEW,B,0,9,9,9,,,,,,,,,,,,,,,,,,,,,,,,,,,,,,,,,,,,,,,,,,,,,,,,,,,,,,,,,67.08413109998219,None,68.62648969986476,None,68.62931160000153,None,68.62931160000153,None,70.84382639988326,None,3,1,0.20590929989703,70.84382639988326,None,,001,2021_Mar_01_2138,GuessTheSound,2020.2.10,60.08824558388115,
Siren_B.wav,2,2,SIMILAR,B,0,10,10,10,,,,,,,,,,,,,,,,,,,,,,,,,,,,,,,,,,,,,,,,,,,,,,,,,,,,,,,,,71.08251019986346,None,72.6093071000185,None,72.61832059989683,None,72.61832059989683,None,74.84356259997003,None,2,1,0.5547261000610888,74.84356259997003,None,,001,2021_Mar_01_2138,GuessTheSound,2020.2.10,60.08824558388115,
Laugh_C.wav,2,3,NEW,B,0,11,11,11,,,,,,,,,,,,,,,,,,,,,,,,,,,,,,,,,,,,,,,,,,,,,,,,,,,,,,,,,75.42768429988064,None,76.95917949983851,None,76.9640967999585,None,76.9640967999585,None,79.17721519991755,None,3,1,0.35701690008863807,79.17721519991755,None,,001,2021_Mar_01_2138,GuessTheSound,2020.2.10,60.08824558388115,
Initial/Repeat/ManWhistle.wav,1,1,OLD,B,0,12,12,12,,,,,,,,,,,,,,,,,,,,,,,,,,,,,,,,,,,,,,,,,,,,,,,,,,,,,,,,,79.56192839983851,None,81.09260649997742,None,81.08937569987029,None,81.08937569987029,None,83.31022949982435,None,3,0,0.3370057998690754,83.31022949982435,None,,001,2021_Mar_01_2138,GuessTheSound,2020.2.10,60.08824558388115,
Initial/NoRepeat/Cow.wav,2,3,NEW,B,0,13,13,13,,,,,,,,,,,,,,,,,,,,,,,,,,,,,,,,,,,,,,,,,,,,,,,,,,,,,,,,,83.67763359984383,None,85.20945049980656,None,85.20828299992718,None,85.20828299992718,None,87.04353959998116,None,3,1,0.19595719990320504,87.04353959998116,None,,001,2021_Mar_01_2138,GuessTheSound,2020.2.10,60.08824558388115,
Cough_G.wav,2,3,NEW,B,0,14,14,14,,,,,,,,,,,,,,,,,,,,,,,,,,,,,,,,,,,,,,,,,,,,,,,,,,,,,,,,,87.26182319992222,None,88.7760032998398,None,88.78118059993722,None,88.78118059993722,None,90.197937999852,None,3,1,2.2085665001068264,90.197937999852,None,,001,2021_Mar_01_2138,GuessTheSound,2020.2.10,60.08824558388115,
Phone_E.wav,2,2,SIMILAR,B,0,15,15,15,,,,,,,,,,,,,,,,,,,,,,,,,,,,,,,,,,,,,,,,,,,,,,,,,,,,,,,,,92.4335403998848,None,93.96158529999667,None,93.96826019999571,None,93.96826019999571,None,96.19344259984791,None,3,0,0.34928590012714267,96.19344259984791,None,,001,2021_Mar_01_2138,GuessTheSound,2020.2.10,60.08824558388115,
Chime_B.wav,2,3,NEW,B,0,16,16,16,,,,,,,,,,,,,,,,,,,,,,,,,,,,,,,,,,,,,,,,,,,,,,,,,,,,,,,,,96.56137729994953,None,98.10924149984494,None,98.1041923998855,None,98.1041923998855,None,100.326862399932,None,3,1,0.4988931999541819,100.326862399932,None,,001,2021_Mar_01_2138,GuessTheSound,2020.2.10,60.08824558388115,
Footsteps_F.wav,2,2,SIMILAR,B,0,17,17,17,,,,,,,,,,,,,,,,,,,,,,,,,,,,,,,,,,,,,,,,,,,,,,,,,,,,,,,,,100.84517250000499,None,102.37580200000667,None,102.38405609992333,None,102.38405609992333,None,104.61014279979281,None,2,1,1.8354438999667764,104.61014279979281,None,,001,2021_Mar_01_2138,GuessTheSound,2020.2.10,60.08824558388115,
Initial/NoRepeat/Toilet_B.wav,2,3,NEW,B,0,18,18,18,,,,,,,,,,,,,,,,,,,,,,,,,,,,,,,,,,,,,,,,,,,,,,,,,,,,,,,,,106.47924049990252,None,108.0259451999329,None,108.01886859978549,None,108.01886859978549,None,110.24313349998556,None,3,1,0.3158134000841528,110.24313349998556,None,,001,2021_Mar_01_2138,GuessTheSound,2020.2.10,60.08824558388115,
Piano_D.wav,2,3,NEW,B,0,19,19,19,,,,,,,,,,,,,,,,,,,,,,,,,,,,,,,,,,,,,,,,,,,,,,,,,,,,,,,,,110.57999429991469,None,112.1087710000109,None,112.10309469979256,None,112.10309469979256,None,114.3266369998455,None,3,1,0.3009888001251966,114.3266369998455,None,,001,2021_Mar_01_2138,GuessTheSound,2020.2.10,60.08824558388115,
Initial/Repeat/Cup.wav,1,1,OLD,B,0,20,20,20,,,,,,,,,,,,,,,,,,,,,,,,,,,,,,,,,,,,,,,,,,,,,,,,,,,,,,,,,114.64533859980293,None,116.15893629994244,None,116.16448009992018,None,116.16448009992018,None,117.4932140999008,None,1,1,0.340627099853009,117.4932140999008,None,,001,2021_Mar_01_2138,GuessTheSound,2020.2.10,60.08824558388115,
Initial/Doubled/HairDryer_A.wav,1,1,OLD,B,0,21,21,21,,,,,,,,,,,,,,,,,,,,,,,,,,,,,,,,,,,,,,,,,,,,,,,,,,,,,,,,,117.85883749998175,None,119.358873399999,None,119.36603049980476,None,119.36603049980476,None,121.59301919979043,None,3,0,0.3239444999489933,121.59301919979043,None,,001,2021_Mar_01_2138,GuessTheSound,2020.2.10,60.08824558388115,
Initial/NoRepeat/Thunder_A.wav,2,3,NEW,B,0,22,22,22,,,,,,,,,,,,,,,,,,,,,,,,,,,,,,,,,,,,,,,,,,,,,,,,,,,,,,,,,121.944528499851,None,123.47547759995797,None,123.4806140998844,None,123.4806140998844,None,125.69301539985463,None,3,1,0.2913333000615239,125.69301539985463,None,,001,2021_Mar_01_2138,GuessTheSound,2020.2.10,60.08824558388115,
Initial/Doubled/Chicken_A.wav,1,1,OLD,B,0,23,23,23,,,,,,,,,,,,,,,,,,,,,,,,,,,,,,,,,,,,,,,,,,,,,,,,,,,,,,,,,126.01325179985724,None,127.52592289992609,None,127.53199839987792,None,127.53199839987792,None,129.209922199836,None,3,0,0.3444608000572771,129.209922199836,None,,001,2021_Mar_01_2138,GuessTheSound,2020.2.10,60.08824558388115,
Whistle_A.wav,2,3,NEW,B,0,24,24,24,,,,,,,,,,,,,,,,,,,,,,,,,,,,,,,,,,,,,,,,,,,,,,,,,,,,,,,,,129.58299929997884,None,131.09253050000407,None,131.10052479989827,None,131.10052479989827,None,132.70963459997438,None,3,1,0.37088179984129965,132.70963459997438,None,,001,2021_Mar_01_2138,GuessTheSound,2020.2.10,60.08824558388115,
Bird_F.wav,2,2,SIMILAR,B,0,25,25,25,,,,,,,,,,,,,,,,,,,,,,,,,,,,,,,,,,,,,,,,,,,,,,,,,,,,,,,,,133.1134213998448,None,134.64225109987893,None,134.639824999962,None,134.639824999962,None,136.50987929990515,None,2,1,0.7705254999455065,136.50987929990515,None,,001,2021_Mar_01_2138,GuessTheSound,2020.2.10,60.08824558388115,
Dog_E.wav,2,3,NEW,B,0,26,26,26,,,,,,,,,,,,,,,,,,,,,,,,,,,,,,,,,,,,,,,,,,,,,,,,,,,,,,,,,137.3094319999218,None,138.8258899999317,None,138.82535189995542,None,138.82535189995542,None,140.57650559977628,None,3,1,3.4250582999084145,140.57650559977628,None,,001,2021_Mar_01_2138,GuessTheSound,2020.2.10,60.08824558388115,
Test/Foils/Bowlingpins.wav,1,1,OLD,B,0,27,27,27,,,,,,,,,,,,,,,,,,,,,,,,,,,,,,,,,,,,,,,,,,,,,,,,,,,,,,,,,144.0297675000038,None,145.5420018998906,None,145.54965509986505,None,145.54965509986505,None,147.776468699798,None,3,0,0.7748990000691265,147.776468699798,None,,001,2021_Mar_01_2138,GuessTheSound,2020.2.10,60.08824558388115,
Initial/NoRepeat/Fireworks.wav,2,3,NEW,B,0,28,28,28,,,,,,,,,,,,,,,,,,,,,,,,,,,,,,,,,,,,,,,,,,,,,,,,,,,,,,,,,148.5797080998309,None,150.108617600007,None,150.11355399992317,None,150.11355399992317,None,152.32624929980375,None,3,1,0.927572299959138,152.32624929980375,None,,001,2021_Mar_01_2138,GuessTheSound,2020.2.10,60.08824558388115,
Initial/NoRepeat/Cow.wav,1,1,OLD,B,0,29,29,29,,,,,,,,,,,,,,,,,,,,,,,,,,,,,,,,,,,,,,,,,,,,,,,,,,,,,,,,,153.27923739980906,None,154.7923188999761,None,154.7982495999895,None,154.7982495999895,None,156.6412219000049,None,3,0,0.43572079995647073,156.6412219000049,None,,001,2021_Mar_01_2138,GuessTheSound,2020.2.10,60.08824558388115,
Snore_D.wav,2,3,NEW,B,0,30,30,30,,,,,,,,,,,,,,,,,,,,,,,,,,,,,,,,,,,,,,,,,,,,,,,,,,,,,,,,,157.09476969996467,None,158.6240000999067,None,158.6269106999971,None,158.6269106999971,None,160.84202689980157,None,3,1,1.1189188999123871,160.84202689980157,None,,001,2021_Mar_01_2138,GuessTheSound,2020.2.10,60.08824558388115,
Faucet_C.wav,2,2,SIMILAR,B,0,31,31,31,,,,,,,,,,,,,,,,,,,,,,,,,,,,,,,,,,,,,,,,,,,,,,,,,,,,,,,,,161.98947919998318,None,163.50867530000397,None,163.51417949981987,None,163.51417949981987,None,165.74283059989102,None,2,1,0.35318559990264475,165.74283059989102,None,,001,2021_Mar_01_2138,GuessTheSound,2020.2.10,60.08824558388115,
Chime_A.wav,2,2,SIMILAR,B,0,32,32,32,,,,,,,,,,,,,,,,,,,,,,,,,,,,,,,,,,,,,,,,,,,,,,,,,,,,,,,,,166.12920379987918,None,167.6586021999363,None,167.66630699997768,None,167.66630699997768,None,169.8927625999786,None,3,0,0.28838709997944534,169.8927625999786,None,,001,2021_Mar_01_2138,GuessTheSound,2020.2.10,60.08824558388115,
Cough_H.wav,2,2,SIMILAR,B,0,33,33,33,,,,,,,,,,,,,,,,,,,,,,,,,,,,,,,,,,,,,,,,,,,,,,,,,,,,,,,,,170.21420719986781,None,171.7251937997993,None,171.7300839999225,None,171.7300839999225,None,173.14273239998147,None,3,0,0.4526072000153363,173.14273239998147,None,,001,2021_Mar_01_2138,GuessTheSound,2020.2.10,60.08824558388115,
Test/Foils/Heartbeat.wav,2,3,NEW,B,0,34,34,34,,,,,,,,,,,,,,,,,,,,,,,,,,,,,,,,,,,,,,,,,,,,,,,,,,,,,,,,,173.627668999834,None,175.15851749987343,None,175.16287509980612,None,175.16287509980612,None,177.37601689994335,None,3,1,0.3752158998977393,177.37601689994335,None,,001,2021_Mar_01_2138,GuessTheSound,2020.2.10,60.08824558388115,
Laugh_F.wav,2,2,SIMILAR,B,0,35,35,35,,,,,,,,,,,,,,,,,,,,,,,,,,,,,,,,,,,,,,,,,,,,,,,,,,,,,,,,,177.77971659996547,None,179.30823409995065,None,179.31335819978267,None,179.31335819978267,None,181.52595189982094,None,2,1,0.3448763999622315,181.52595189982094,None,,001,2021_Mar_01_2138,GuessTheSound,2020.2.10,60.08824558388115,
Initial/Repeat/Cello.wav,2,3,NEW,B,0,36,36,36,,,,,,,,,,,,,,,,,,,,,,,,,,,,,,,,,,,,,,,,,,,,,,,,,,,,,,,,,181.89161619986407,None,183.40841919993983,None,183.41370789986104,None,183.41370789986104,None,185.62589789996855,None,3,1,0.47830590000376105,185.62589789996855,None,,001,2021_Mar_01_2138,GuessTheSound,2020.2.10,60.08824558388115,
Piano_D.wav,1,1,OLD,B,0,37,37,37,,,,,,,,,,,,,,,,,,,,,,,,,,,,,,,,,,,,,,,,,,,,,,,,,,,,,,,,,186.12623099982738,None,187.6416469999589,None,187.64859149977565,None,187.64859149977565,None,189.87585359998047,None,3,0,0.7954389001242816,189.87585359998047,None,,001,2021_Mar_01_2138,GuessTheSound,2020.2.10,60.08824558388115,
Clap_B.wav,2,3,NEW,B,0,38,38,38,,,,,,,,,,,,,,,,,,,,,,,,,,,,,,,,,,,,,,,,,,,,,,,,,,,,,,,,,190.6943217997905,None,192.22483579996043,None,192.22775759990327,None,192.22775759990327,None,194.4423512998037,None,3,1,0.4049207998905331,194.4423512998037,None,,001,2021_Mar_01_2138,GuessTheSound,2020.2.10,60.08824558388115,
Initial/Repeat/Bagpipe.wav,2,3,NEW,B,0,39,39,39,,,,,,,,,,,,,,,,,,,,,,,,,,,,,,,,,,,,,,,,,,,,,,,,,,,,,,,,,194.87883939989842,None,196.4082317000255,None,196.41303880000487,None,196.41303880000487,None,198.62573119997978,None,3,1,0.6174286999739707,198.62573119997978,None,,001,2021_Mar_01_2138,GuessTheSound,2020.2.10,60.08824558388115,
Growl_G.wav,2,3,NEW,B,0,40,40,40,,,,,,,,,,,,,,,,,,,,,,,,,,,,,,,,,,,,,,,,,,,,,,,,,,,,,,,,,199.26006919983774,None,200.79177569989116,None,200.7914113998413,None,200.7914113998413,None,203.00934779993258,None,3,1,0.34280389989726245,203.00934779993258,None,,001,2021_Mar_01_2138,GuessTheSound,2020.2.10,60.08824558388115,
Initial/Repeat/Airplane_B.wav,2,3,NEW,B,0,41,41,41,,,,,,,,,,,,,,,,,,,,,,,,,,,,,,,,,,,,,,,,,,,,,,,,,,,,,,,,,203.37617189995944,None,204.908036799822,None,204.91102489992045,None,204.91102489992045,None,207.12578559992835,None,3,1,0.236663400195539,207.12578559992835,None,,001,2021_Mar_01_2138,GuessTheSound,2020.2.10,60.08824558388115,
Initial/NoRepeat/Toilet_B.wav,1,1,OLD,B,0,42,42,42,,,,,,,,,,,,,,,,,,,,,,,,,,,,,,,,,,,,,,,,,,,,,,,,,,,,,,,,,207.39223259990104,None,208.90816919989885,None,208.90561709995382,None,208.90561709995382,None,211.12579069985077,None,1,1,0.359215599950403,211.12579069985077,None,,001,2021_Mar_01_2138,GuessTheSound,2020.2.10,60.08824558388115,
Initial/NoRepeat/Hammer_A.wav,2,3,NEW,B,0,43,43,43,,,,,,,,,,,,,,,,,,,,,,,,,,,,,,,,,,,,,,,,,,,,,,,,,,,,,,,,,211.51026069978252,None,213.04141739984044,None,213.043664699886,None,213.043664699886,None,215.262794499984,None,3,1,1.5139872999861836,215.262794499984,None,,001,2021_Mar_01_2138,GuessTheSound,2020.2.10,60.08824558388115,
Goat_D.wav,2,3,NEW,B,0,44,44,44,,,,,,,,,,,,,,,,,,,,,,,,,,,,,,,,,,,,,,,,,,,,,,,,,,,,,,,,,216.8161642998457,None,218.34403079999612,None,218.3473653998226,None,218.3473653998226,None,220.0753019999247,None,3,1,2.115189200034365,220.0753019999247,None,,001,2021_Mar_01_2138,GuessTheSound,2020.2.10,60.08824558388115,
Coin_D.wav,2,3,NEW,B,0,45,45,45,,,,,,,,,,,,,,,,,,,,,,,,,,,,,,,,,,,,,,,,,,,,,,,,,,,,,,,,,222.20866269990802,None,223.72712679994294,None,223.73096359986812,None,223.73096359986812,None,225.90865079988725,None,3,1,0.3434961000457406,225.90865079988725,None,,001,2021_Mar_01_2138,GuessTheSound,2020.2.10,60.08824558388115,
Initial/NoRepeat/Fireworks.wav,1,1,OLD,B,0,46,46,46,,,,,,,,,,,,,,,,,,,,,,,,,,,,,,,,,,,,,,,,,,,,,,,,,,,,,,,,,226.27942669996992,None,227.79134969981388,None,227.798392099794,None,227.798392099794,None,230.02537289983593,None,3,0,0.5196123998612165,230.02537289983593,None,,001,2021_Mar_01_2138,GuessTheSound,2020.2.10,60.08824558388115,
Test/Foils/Donkey.wav,2,3,NEW,B,0,47,47,47,,,,,,,,,,,,,,,,,,,,,,,,,,,,,,,,,,,,,,,,,,,,,,,,,,,,,,,,,230.57876319997013,None,232.1237698998768,None,232.12036189995706,None,232.12036189995706,None,234.3419165997766,None,3,1,0.34806010010652244,234.3419165997766,None,,001,2021_Mar_01_2138,GuessTheSound,2020.2.10,60.08824558388115,
Initial/Repeat/Howl.wav,2,3,NEW,B,0,48,48,48,,,,,,,,,,,,,,,,,,,,,,,,,,,,,,,,,,,,,,,,,,,,,,,,,,,,,,,,,234.7086642999202,None,236.22439619987273,None,236.22282709996216,None,236.22282709996216,None,238.44178759981878,None,3,1,0.5038433000445366,238.44178759981878,None,,001,2021_Mar_01_2138,GuessTheSound,2020.2.10,60.08824558388115,
Initial/NoRepeat/Thunder_A.wav,1,1,OLD,B,0,49,49,49,,,,,,,,,,,,,,,,,,,,,,,,,,,,,,,,,,,,,,,,,,,,,,,,,,,,,,,,,238.97462839982472,None,240.47422790001147,None,240.48208619980142,None,240.48208619980142,None,242.70881699980237,None,3,0,0.3026831999886781,242.70881699980237,None,,001,2021_Mar_01_2138,GuessTheSound,2020.2.10,60.08824558388115,
Whistle_C.wav,2,2,SIMILAR,B,0,50,50,50,,,,,,,,,,,,,,,,,,,,,,,,,,,,,,,,,,,,,,,,,,,,,,,,,,,,,,,,,243.04532839986496,None,244.57438570000232,None,244.57513429992832,None,244.57513429992832,None,246.37537829997018,None,2,1,0.5441262999083847,246.37537829997018,None,,001,2021_Mar_01_2138,GuessTheSound,2020.2.10,60.08824558388115,
Initial/NoRepeat/Helicopter_A.wav,2,3,NEW,B,0,51,51,51,,,,,,,,,,,,,,,,,,,,,,,,,,,,,,,,,,,,,,,,,,,,,,,,,,,,,,,,,246.9412289999891,None,248.45786039992237,None,248.4642889997922,None,248.4642889997922,None,250.69165739999153,None,3,1,0.4616505999583751,250.69165739999153,None,,001,2021_Mar_01_2138,GuessTheSound,2020.2.10,60.08824558388115,
Dog_H.wav,2,2,SIMILAR,B,0,52,52,52,,,,,,,,,,,,,,,,,,,,,,,,,,,,,,,,,,,,,,,,,,,,,,,,,,,,,,,,,251.17558419983834,None,252.70772879985162,None,252.7126784999855,None,252.7126784999855,None,254.92512889998034,None,3,0,0.49553800001740456,254.92512889998034,None,,001,2021_Mar_01_2138,GuessTheSound,2020.2.10,60.08824558388115,
Test/Foils/Horse.wav,2,3,NEW,B,0,53,53,53,,,,,,,,,,,,,,,,,,,,,,,,,,,,,,,,,,,,,,,,,,,,,,,,,,,,,,,,,255.44132449990138,None,256.9576570998877,None,256.9665964997839,None,256.9665964997839,None,259.15859179990366,None,3,1,0.22798650013282895,259.15859179990366,None,,001,2021_Mar_01_2138,GuessTheSound,2020.2.10,60.08824558388115,
Chomp_F.wav,2,3,NEW,B,0,54,54,54,,,,,,,,,,,,,,,,,,,,,,,,,,,,,,,,,,,,,,,,,,,,,,,,,,,,,,,,,259.40921249985695,None,260.9412094000261,None,260.9449568998534,None,260.9449568998534,None,263.15828089998104,None,3,1,0.36514790006913245,263.15828089998104,None,,001,2021_Mar_01_2138,GuessTheSound,2020.2.10,60.08824558388115,
Test/Foils/Heartbeat.wav,1,1,OLD,B,0,55,55,55,,,,,,,,,,,,,,,,,,,,,,,,,,,,,,,,,,,,,,,,,,,,,,,,,,,,,,,,,263.5442769997753,None,265.05741579979656,None,265.0651744999923,None,265.0651744999923,None,267.29165339982137,None,3,0,0.378574299858883,267.29165339982137,None,,001,2021_Mar_01_2138,GuessTheSound,2020.2.10,60.08824558388115,
Clap_C.wav,2,2,SIMILAR,B,0,56,56,56,,,,,,,,,,,,,,,,,,,,,,,,,,,,,,,,,,,,,,,,,,,,,,,,,,,,,,,,,267.69126509991474,None,269.2072000999003,None,269.20778249995783,None,269.20778249995783,None,271.4250526998658,None,3,0,0.5604250999167562,271.4250526998658,None,,001,2021_Mar_01_2138,GuessTheSound,2020.2.10,60.08824558388115,
Crow_B.wav,2,3,NEW,B,0,57,57,57,,,,,,,,,,,,,,,,,,,,,,,,,,,,,,,,,,,,,,,,,,,,,,,,,,,,,,,,,272.0073660998605,None,273.52406159993257,None,273.5297262999229,None,273.5297262999229,None,275.6083673997782,None,3,1,0.36053390009328723,275.6083673997782,None,,001,2021_Mar_01_2138,GuessTheSound,2020.2.10,60.08824558388115,
Growl_H.wav,2,2,SIMILAR,B,0,58,58,58,,,,,,,,,,,,,,,,,,,,,,,,,,,,,,,,,,,,,,,,,,,,,,,,,,,,,,,,,275.99184269993566,None,277.5392105998937,None,277.5379493997898,None,277.5379493997898,None,279.75680129998364,None,2,1,0.47022869996726513,279.75680129998364,None,,001,2021_Mar_01_2138,GuessTheSound,2020.2.10,60.08824558388115,
Initial/Repeat/Printer.wav,2,3,NEW,B,0,59,59,59,,,,,,,,,,,,,,,,,,,,,,,,,,,,,,,,,,,,,,,,,,,,,,,,,,,,,,,,,280.25752649991773,None,281.7901031999383,None,281.7889447999187,None,281.7889447999187,None,284.0083515997976,None,3,1,0.4053722999524325,284.0083515997976,None,,001,2021_Mar_01_2138,GuessTheSound,2020.2.10,60.08824558388115,
Initial/Repeat/Cello.wav,1,1,OLD,B,0,60,60,60,,,,,,,,,,,,,,,,,,,,,,,,,,,,,,,,,,,,,,,,,,,,,,,,,,,,,,,,,284.4421797997784,None,285.95713919992556,None,285.96532560000196,None,285.96532560000196,None,288.1917186998762,None,3,0,0.3874667000491172,288.1917186998762,None,,001,2021_Mar_01_2138,GuessTheSound,2020.2.10,60.08824558388115,
Snore_E.wav,2,2,SIMILAR,B,0,61,61,61,,,,,,,,,,,,,,,,,,,,,,,,,,,,,,,,,,,,,,,,,,,,,,,,,,,,,,,,,288.6145391999744,None,290.14055319987233,None,290.14297869987786,None,290.14297869987786,None,292.3581919998396,None,3,0,1.1757374999579042,292.3581919998396,None,,001,2021_Mar_01_2138,GuessTheSound,2020.2.10,60.08824558388115,
CarStart_F.wav,2,3,NEW,B,0,62,62,62,,,,,,,,,,,,,,,,,,,,,,,,,,,,,,,,,,,,,,,,,,,,,,,,,,,,,,,,,293.56044009979814,None,295.0905561998486,None,295.09192859986797,None,295.09192859986797,None,297.3084097998217,None,3,1,0.2777410000562668,297.3084097998217,None,,001,2021_Mar_01_2138,GuessTheSound,2020.2.10,60.08824558388115,
Goat_E.wav,2,2,SIMILAR,B,0,63,63,63,,,,,,,,,,,,,,,,,,,,,,,,,,,,,,,,,,,,,,,,,,,,,,,,,,,,,,,,,297.6081508998759,None,299.1406525999307,None,299.13902869983576,None,299.13902869983576,None,300.8412705999799,None,2,1,0.34466159995645285,300.8412705999799,None,,001,2021_Mar_01_2138,GuessTheSound,2020.2.10,60.08824558388115,
Coin_E.wav,2,2,SIMILAR,B,0,64,64,64,,,,,,,,,,,,,,,,,,,,,,,,,,,,,,,,,,,,,,,,,,,,,,,,,,,,,,,,,301.20804939977825,None,302.74068899983536,None,302.74418779998086,None,302.74418779998086,None,304.7748219999485,None,2,1,0.13703680015169084,304.7748219999485,None,,001,2021_Mar_01_2138,GuessTheSound,2020.2.10,60.08824558388115,
Initial/Repeat/Howl.wav,1,1,OLD,B,0,65,65,65,,,,,,,,,,,,,,,,,,,,,,,,,,,,,,,,,,,,,,,,,,,,,,,,,,,,,,,,,304.9425137999933,None,306.456930599967,None,306.4663275999483,None,306.4663275999483,None,308.69115739990957,None,3,0,0.47646800009533763,308.69115739990957,None,,001,2021_Mar_01_2138,GuessTheSound,2020.2.10,60.08824558388115,
Initial/Repeat/Airplane_B.wav,1,1,OLD,B,0,66,66,66,,,,,,,,,,,,,,,,,,,,,,,,,,,,,,,,,,,,,,,,,,,,,,,,,,,,,,,,,309.1944141997956,None,310.70706259980795,None,310.71784399985336,None,310.71784399985336,None,312.9411417997908,None,3,0,0.33126060012727976,312.9411417997908,None,,001,2021_Mar_01_2138,GuessTheSound,2020.2.10,60.08824558388115,
Initial/NoRepeat/Mosquito_B.wav,1,1,OLD,B,0,67,67,67,,,,,,,,,,,,,,,,,,,,,,,,,,,,,,,,,,,,,,,,,,,,,,,,,,,,,,,,,313.2914171000011,None,314.8071618999354,None,314.8156772998627,None,314.8156772998627,None,316.95767889986746,None,3,0,0.37992509989999235,316.95767889986746,None,,001,2021_Mar_01_2138,GuessTheSound,2020.2.10,60.08824558388115,
Initial/NoRepeat/Droplet_B.wav,2,3,NEW,B,0,68,68,68,,,,,,,,,,,,,,,,,,,,,,,,,,,,,,,,,,,,,,,,,,,,,,,,,,,,,,,,,317.35937329987064,None,318.8901885000057,None,318.8976527999621,None,318.8976527999621,None,321.0578696997836,None,3,1,0.008627399802207947,321.0578696997836,None,,001,2021_Mar_01_2138,GuessTheSound,2020.2.10,60.08824558388115,
Test/Foils/Donkey.wav,1,1,OLD,B,0,69,69,69,,,,,,,,,,,,,,,,,,,,,,,,,,,,,,,,,,,,,,,,,,,,,,,,,,,,,,,,,321.0943843999412,None,322.60694199996067,None,322.6157362998929,None,322.6157362998929,None,324.84100109990686,None,1,1,0.8459900000598282,324.84100109990686,None,,001,2021_Mar_01_2138,GuessTheSound,2020.2.10,60.08824558388115,
Test/Lures/Guitar_B.wav,2,3,NEW,B,0,70,70,70,,,,,,,,,,,,,,,,,,,,,,,,,,,,,,,,,,,,,,,,,,,,,,,,,,,,,,,,,325.7086883999873,None,327.2233519999776,None,327.2229260997847,None,327.2229260997847,None,329.440982399974,None,3,1,0.2905669999308884,329.440982399974,None,,001,2021_Mar_01_2138,GuessTheSound,2020.2.10,60.08824558388115,
Initial/Repeat/Bagpipe.wav,1,1,OLD,B,0,71,71,71,,,,,,,,,,,,,,,,,,,,,,,,,,,,,,,,,,,,,,,,,,,,,,,,,,,,,,,,,329.75802349997684,None,331.27390249990856,None,331.2821564998012,None,331.2821564998012,None,333.50735879992135,None,1,1,0.7757461001165211,333.50735879992135,None,,001,2021_Mar_01_2138,GuessTheSound,2020.2.10,60.08824558388115,
Initial/NoRepeat/Hammer_A.wav,2,3,NEW,B,0,72,72,72,,,,,,,,,,,,,,,,,,,,,,,,,,,,,,,,,,,,,,,,,,,,,,,,,,,,,,,,,334.3080571999308,None,335.8232000999618,None,335.83197499997914,None,335.83197499997914,None,338.0576441998128,None,3,1,0.13936459994874895,338.0576441998128,None,,001,2021_Mar_01_2138,GuessTheSound,2020.2.10,60.08824558388115,
Initial/NoRepeat/Helicopter_A.wav,1,1,OLD,B,0,73,73,73,,,,,,,,,,,,,,,,,,,,,,,,,,,,,,,,,,,,,,,,,,,,,,,,,,,,,,,,,338.2245864998549,None,339.72393309986217,None,339.7334877999965,None,339.7334877999965,None,341.9575054999441,None,1,1,0.30983889987692237,341.9575054999441,None,,001,2021_Mar_01_2138,GuessTheSound,2020.2.10,60.08824558388115,
Test/Foils/Camera.wav,2,3,NEW,B,0,74,74,74,,,,,,,,,,,,,,,,,,,,,,,,,,,,,,,,,,,,,,,,,,,,,,,,,,,,,,,,,342.29466269980185,None,343.8233868998475,None,343.8178814998828,None,343.8178814998828,None,344.79078149981797,None,3,1,0.36943620000965893,344.79078149981797,None,,001,2021_Mar_01_2138,GuessTheSound,2020.2.10,60.08824558388115,
Test/Foils/Steam.wav,2,3,NEW,B,0,75,75,75,,,,,,,,,,,,,,,,,,,,,,,,,,,,,,,,,,,,,,,,,,,,,,,,,,,,,,,,,345.19435679982416,None,346.72323099984783,None,346.72589189978316,None,346.72589189978316,None,348.9406669999007,None,3,1,0.20913880015723407,348.9406669999007,None,,001,2021_Mar_01_2138,GuessTheSound,2020.2.10,60.08824558388115,
Test/Foils/Horse.wav,1,1,OLD,B,0,76,76,76,,,,,,,,,,,,,,,,,,,,,,,,,,,,,,,,,,,,,,,,,,,,,,,,,,,,,,,,,349.175242499914,None,350.68928399994036,None,350.68930189986713,None,350.68930189986713,None,352.8906966999639,None,1,1,0.4613121000584215,352.8906966999639,None,,001,2021_Mar_01_2138,GuessTheSound,2020.2.10,60.08824558388115,
Elephant_C.wav,2,3,NEW,B,0,77,77,77,,,,,,,,,,,,,,,,,,,,,,,,,,,,,,,,,,,,,,,,,,,,,,,,,,,,,,,,,353.3736948999576,None,354.88996200002725,None,354.888575399993,None,354.888575399993,None,357.10732729989104,None,3,1,0.43053220002911985,357.10732729989104,None,,001,2021_Mar_01_2138,GuessTheSound,2020.2.10,60.08824558388115,
Initial/Repeat/Printer.wav,1,1,OLD,B,0,78,78,78,,,,,,,,,,,,,,,,,,,,,,,,,,,,,,,,,,,,,,,,,,,,,,,,,,,,,,,,,357.55711629986763,None,359.05649269986895,None,359.06618119985797,None,359.06618119985797,None,361.29060329985805,None,3,0,0.554041099967435,361.29060329985805,None,,001,2021_Mar_01_2138,GuessTheSound,2020.2.10,60.08824558388115,
Crow_A.wav,2,2,SIMILAR,B,0,79,79,79,,,,,,,,,,,,,,,,,,,,,,,,,,,,,,,,,,,,,,,,,,,,,,,,,,,,,,,,,361.8753150999546,None,363.4065954000223,None,363.4037761997897,None,363.4037761997897,None,365.2408143999055,None,3,0,0.9502883998211473,365.2408143999055,None,,001,2021_Mar_01_2138,GuessTheSound,2020.2.10,60.08824558388115,
Initial/Doubled/Bubbles_A.wav,2,3,NEW,B,0,80,80,80,,,,,,,,,,,,,,,,,,,,,,,,,,,,,,,,,,,,,,,,,,,,,,,,,,,,,,,,,366.2243363999296,None,367.75640819985415,None,367.7587878999766,None,367.7587878999766,None,369.9739595998544,None,3,1,0.5433183000423014,369.9739595998544,None,,001,2021_Mar_01_2138,GuessTheSound,2020.2.10,60.08824558388115,
Chomp_E.wav,2,2,SIMILAR,B,0,81,81,81,,,,,,,,,,,,,,,,,,,,,,,,,,,,,,,,,,,,,,,,,,,,,,,,,,,,,,,,,370.54125059978105,None,372.08972959993406,None,372.0987309999764,None,372.0987309999764,None,374.30733849992976,None,2,1,0.5034492001868784,374.30733849992976,None,,001,2021_Mar_01_2138,GuessTheSound,2020.2.10,60.08824558388115,
Test/Foils/Airhorn.wav,2,3,NEW,B,0,82,82,82,,,,,,,,,,,,,,,,,,,,,,,,,,,,,,,,,,,,,,,,,,,,,,,,,,,,,,,,,374.84252059995197,None,376.3730600999668,None,376.37371399998665,None,376.37371399998665,None,378.5905264997855,None,3,1,0.7848567001055926,378.5905264997855,None,,001,2021_Mar_01_2138,GuessTheSound,2020.2.10,60.08824558388115,
Initial/Doubled/Writing_A.wav,2,3,NEW,B,0,83,83,83,,,,,,,,,,,,,,,,,,,,,,,,,,,,,,,,,,,,,,,,,,,,,,,,,,,,,,,,,379.4086226997897,None,380.9397225998807,None,380.94550069980323,None,380.94550069980323,None,383.1736578999553,None,3,1,0.244193600025028,383.1736578999553,None,,001,2021_Mar_01_2138,GuessTheSound,2020.2.10,60.08824558388115,
Initial/Doubled/Cuckoo_A.wav,2,3,NEW,B,0,84,84,84,,,,,,,,,,,,,,,,,,,,,,,,,,,,,,,,,,,,,,,,,,,,,,,,,,,,,,,,,383.43972249981016,None,384.95629499987695,None,384.9619291999843,None,384.9619291999843,None,387.1904168999754,None,1,0,0.40577850001864135,387.1904168999754,None,,001,2021_Mar_01_2138,GuessTheSound,2020.2.10,60.08824558388115,
Initial/Repeat/IceDrop.wav,2,3,NEW,B,0,85,85,85,,,,,,,,,,,,,,,,,,,,,,,,,,,,,,,,,,,,,,,,,,,,,,,,,,,,,,,,,387.62709599989466,None,389.1561259999405,None,389.16587339993566,None,389.16587339993566,None,391.39032449992374,None,3,1,0.5542486000340432,391.39032449992374,None,,001,2021_Mar_01_2138,GuessTheSound,2020.2.10,60.08824558388115,
CarStart_E.wav,2,2,SIMILAR,B,0,86,86,86,,,,,,,,,,,,,,,,,,,,,,,,,,,,,,,,,,,,,,,,,,,,,,,,,,,,,,,,,391.97589559992775,None,393.5062681999523,None,393.5106695999857,None,393.5106695999857,None,395.72364489990287,None,3,0,0.3548892999533564,395.72364489990287,None,,001,2021_Mar_01_2138,GuessTheSound,2020.2.10,60.08824558388115,
Baby_F.wav,2,3,NEW,B,0,87,87,87,,,,,,,,,,,,,,,,,,,,,,,,,,,,,,,,,,,,,,,,,,,,,,,,,,,,,,,,,396.11081260000356,None,397.6379540999885,None,397.635950199794,None,397.635950199794,None,399.8553830999881,None,3,1,0.39558549993671477,399.8553830999881,None,,001,2021_Mar_01_2138,GuessTheSound,2020.2.10,60.08824558388115,
Initial/NoRepeat/Puff_A.wav,2,3,NEW,B,0,88,88,88,,,,,,,,,,,,,,,,,,,,,,,,,,,,,,,,,,,,,,,,,,,,,,,,,,,,,,,,,400.27147099981084,None,401.82197159985077,None,401.8222065998707,None,401.8222065998707,None,403.52368769980967,None,3,1,0.17633040016517043,403.52368769980967,None,,001,2021_Mar_01_2138,GuessTheSound,2020.2.10,60.08824558388115,
Initial/NoRepeat/Droplet_B.wav,1,1,OLD,B,0,89,89,89,,,,,,,,,,,,,,,,,,,,,,,,,,,,,,,,,,,,,,,,,,,,,,,,,,,,,,,,,403.72510229982436,None,405.2393915998749,None,405.2474088999443,None,405.2474088999443,None,407.406785500003,None,1,1,0.6415776999201626,407.406785500003,None,,001,2021_Mar_01_2138,GuessTheSound,2020.2.10,60.08824558388115,
Test/Lures/Guitar_B.wav,1,1,OLD,B,0,90,90,90,,,,,,,,,,,,,,,,,,,,,,,,,,,,,,,,,,,,,,,,,,,,,,,,,,,,,,,,,408.0775981999468,None,409.58936979980206,None,409.59865889977664,None,409.59865889977664,None,411.8234596999828,None,3,0,0.39926009997725487,411.8234596999828,None,,001,2021_Mar_01_2138,GuessTheSound,2020.2.10,60.08824558388115,
Initial/Repeat/PaperRip.wav,2,3,NEW,B,0,91,91,91,,,,,,,,,,,,,,,,,,,,,,,,,,,,,,,,,,,,,,,,,,,,,,,,,,,,,,,,,412.23954219999723,None,413.7558339999057,None,413.7558549998794,None,413.7558549998794,None,415.3572251999285,None,3,1,0.5893688001669943,415.3572251999285,None,,001,2021_Mar_01_2138,GuessTheSound,2020.2.10,60.08824558388115,
Initial/NoRepeat/Mosquito_B.wav,1,1,OLD,B,0,92,92,92,,,,,,,,,,,,,,,,,,,,,,,,,,,,,,,,,,,,,,,,,,,,,,,,,,,,,,,,,415.9733855999075,None,417.4727037999313,None,417.4820975000039,None,417.4820975000039,None,419.62353409989737,None,3,0,0.27716409997083247,419.62353409989737,None,,001,2021_Mar_01_2138,GuessTheSound,2020.2.10,60.08824558388115,
Initial/Repeat/Trumpet_B.wav,2,3,NEW,B,0,93,93,93,,,,,,,,,,,,,,,,,,,,,,,,,,,,,,,,,,,,,,,,,,,,,,,,,,,,,,,,,419.923781799851,None,421.4559548999648,None,421.4562847998459,None,421.4562847998459,None,423.6736192998942,None,3,1,0.2627703999169171,423.6736192998942,None,,001,2021_Mar_01_2138,GuessTheSound,2020.2.10,60.08824558388115,
Test/Foils/Bullfrog.wav,2,3,NEW,B,0,94,94,94,,,,,,,,,,,,,,,,,,,,,,,,,,,,,,,,,,,,,,,,,,,,,,,,,,,,,,,,,423.95823289989494,None,425.4893955999985,None,425.49440769990906,None,425.49440769990906,None,427.70674859988503,None,3,1,0.6856843000277877,427.70674859988503,None,,001,2021_Mar_01_2138,GuessTheSound,2020.2.10,60.08824558388115,
Elephant_D.wav,2,2,SIMILAR,B,0,95,95,95,,,,,,,,,,,,,,,,,,,,,,,,,,,,,,,,,,,,,,,,,,,,,,,,,,,,,,,,,428.4275700999424,None,429.95565779991443,None,429.9594029998407,None,429.9594029998407,None,432.17321559996344,None,2,1,0.663565400056541,432.17321559996344,None,,001,2021_Mar_01_2138,GuessTheSound,2020.2.10,60.08824558388115,
Initial/Repeat/Sneeze_B.wav,2,3,NEW,B,0,96,96,96,,,,,,,,,,,,,,,,,,,,,,,,,,,,,,,,,,,,,,,,,,,,,,,,,,,,,,,,,432.858947499888,None,434.3889390998054,None,434.38237219979055,None,434.38237219979055,None,435.60665839980356,None,3,1,0.3789299998898059,435.60665839980356,None,,001,2021_Mar_01_2138,GuessTheSound,2020.2.10,60.08824558388115,
Test/Foils/Camera.wav,1,1,OLD,B,0,97,97,97,,,,,,,,,,,,,,,,,,,,,,,,,,,,,,,,,,,,,,,,,,,,,,,,,,,,,,,,,436.0060368999839,None,437.5056800999213,None,437.5123515999876,None,437.5123515999876,None,438.4731149999425,None,1,1,0.7156711998395622,438.4731149999425,None,,001,2021_Mar_01_2138,GuessTheSound,2020.2.10,60.08824558388115,
Initial/Doubled/Cat_A.wav,2,3,NEW,B,0,98,98,98,,,,,,,,,,,,,,,,,,,,,,,,,,,,,,,,,,,,,,,,,,,,,,,,,,,,,,,,,439.2102867998183,None,440.7388562999665,None,440.7355600998271,None,440.7355600998271,None,442.1567396998871,None,3,1,0.29797439998947084,442.1567396998871,None,,001,2021_Mar_01_2138,GuessTheSound,2020.2.10,60.08824558388115,
Test/Foils/Steam.wav,1,1,OLD,B,0,99,99,99,,,,,,,,,,,,,,,,,,,,,,,,,,,,,,,,,,,,,,,,,,,,,,,,,,,,,,,,,442.47353449999355,None,443.9727469997946,None,443.98364189988934,None,443.98364189988934,None,446.20635069999844,None,3,0,0.41643909993581474,446.20635069999844,None,,001,2021_Mar_01_2138,GuessTheSound,2020.2.10,60.08824558388115,
Writing_C.wav,2,2,SIMILAR,B,0,100,100,100,,,,,,,,,,,,,,,,,,,,,,,,,,,,,,,,,,,,,,,,,,,,,,,,,,,,,,,,,446.6403249998111,None,448.1723235998768,None,448.175174199976,None,448.175174199976,None,450.3897110999096,None,2,1,0.29203330003656447,450.3897110999096,None,,001,2021_Mar_01_2138,GuessTheSound,2020.2.10,60.08824558388115,
Initial/Repeat/IceDrop.wav,1,1,OLD,B,0,101,101,101,,,,,,,,,,,,,,,,,,,,,,,,,,,,,,,,,,,,,,,,,,,,,,,,,,,,,,,,,450.7069532999303,None,452.2226623998489,None,452.23067379998975,None,452.23067379998975,None,454.45636739977635,None,3,0,0.582496700109914,454.45636739977635,None,,001,2021_Mar_01_2138,GuessTheSound,2020.2.10,60.08824558388115,
Test/Foils/Slurp.wav,2,3,NEW,B,0,102,102,102,,,,,,,,,,,,,,,,,,,,,,,,,,,,,,,,,,,,,,,,,,,,,,,,,,,,,,,,,455.0565779998433,None,456.60580349997616,None,456.6146164999809,None,456.6146164999809,None,458.83957299985923,None,3,1,0.5618540998548269,458.83957299985923,None,,001,2021_Mar_01_2138,GuessTheSound,2020.2.10,60.08824558388115,
Baby_E.wav,2,2,SIMILAR,B,0,103,103,103,,,,,,,,,,,,,,,,,,,,,,,,,,,,,,,,,,,,,,,,,,,,,,,,,,,,,,,,,459.4229103999678,None,460.938577299891,None,460.9432677999139,None,460.9432677999139,None,463.1563267998863,None,3,0,0.25847080000676215,463.1563267998863,None,,001,2021_Mar_01_2138,GuessTheSound,2020.2.10,60.08824558388115,
Test/Foils/DialTone.wav,2,3,NEW,B,0,104,104,104,,,,,,,,,,,,,,,,,,,,,,,,,,,,,,,,,,,,,,,,,,,,,,,,,,,,,,,,,463.44037349987775,None,464.9719994000159,None,464.97857989999466,None,464.97857989999466,None,467.2081167998258,None,3,1,0.3693780000321567,467.2081167998258,None,,001,2021_Mar_01_2138,GuessTheSound,2020.2.10,60.08824558388115,
Initial/NoRepeat/Puff_A.wav,1,1,OLD,B,0,105,105,105,,,,,,,,,,,,,,,,,,,,,,,,,,,,,,,,,,,,,,,,,,,,,,,,,,,,,,,,,467.60891539999284,None,469.122152199829,None,469.12800339981914,None,469.12800339981914,None,470.8225439998787,None,3,0,0.4607689999975264,470.8225439998787,None,,001,2021_Mar_01_2138,GuessTheSound,2020.2.10,60.08824558388115,
Initial/Repeat/Buzz.wav,2,3,NEW,B,0,106,106,106,,,,,,,,,,,,,,,,,,,,,,,,,,,,,,,,,,,,,,,,,,,,,,,,,,,,,,,,,471.30773379979655,None,472.8390234999358,None,472.8358378999401,None,472.8358378999401,None,475.05605959985405,None,3,1,1.4127829999197274,475.05605959985405,None,,001,2021_Mar_01_2138,GuessTheSound,2020.2.10,60.08824558388115,
Test/Foils/Airhorn.wav,1,1,OLD,B,0,107,107,107,,,,,,,,,,,,,,,,,,,,,,,,,,,,,,,,,,,,,,,,,,,,,,,,,,,,,,,,,476.49007749999873,None,478.00519319982266,None,478.0139545998536,None,478.0139545998536,None,480.23943829978816,None,3,0,0.514238600153476,480.23943829978816,None,,001,2021_Mar_01_2138,GuessTheSound,2020.2.10,60.08824558388115,
Initial/NoRepeat/Sleighbells_B.wav,2,3,NEW,B,0,108,108,108,,,,,,,,,,,,,,,,,,,,,,,,,,,,,,,,,,,,,,,,,,,,,,,,,,,,,,,,,480.77175739989616,None,482.28874379997137,None,482.2946214999538,None,482.2946214999538,None,484.5227127999533,None,3,1,0.51419089990668,484.5227127999533,None,,001,2021_Mar_01_2138,GuessTheSound,2020.2.10,60.08824558388115,
Initial/Doubled/Cuckoo_A.wav,1,1,OLD,B,0,109,109,109,,,,,,,,,,,,,,,,,,,,,,,,,,,,,,,,,,,,,,,,,,,,,,,,,,,,,,,,,485.05801379983313,None,486.57205149983054,None,486.581980999792,None,486.581980999792,None,488.8062444999814,None,3,0,0.9002518001943827,488.8062444999814,None,,001,2021_Mar_01_2138,GuessTheSound,2020.2.10,60.08824558388115,
Test/Foils/Wind_B.wav,2,3,NEW,B,0,110,110,110,,,,,,,,,,,,,,,,,,,,,,,,,,,,,,,,,,,,,,,,,,,,,,,,,,,,,,,,,489.7255264997948,None,491.25497850002716,None,491.2648099998478,None,491.2648099998478,None,493.48916050000116,None,3,1,0.45823280001059175,493.48916050000116,None,,001,2021_Mar_01_2138,GuessTheSound,2020.2.10,60.08824558388115,
Test/Foils/Typing.wav,2,3,NEW,B,0,111,111,111,,,,,,,,,,,,,,,,,,,,,,,,,,,,,,,,,,,,,,,,,,,,,,,,,,,,,,,,,493.9730885999743,None,495.50497639989476,None,495.5064150998369,None,495.5064150998369,None,497.72258549998514,None,3,1,0.6154036999214441,497.72258549998514,None,,001,2021_Mar_01_2138,GuessTheSound,2020.2.10,60.08824558388115,
Test/Lures/Bubbles_B.wav,2,2,SIMILAR,B,0,112,112,112,,,,,,,,,,,,,,,,,,,,,,,,,,,,,,,,,,,,,,,,,,,,,,,,,,,,,,,,,498.3579179998487,None,499.8883776999544,None,499.8821569997817,None,499.8821569997817,None,502.10612599994056,None,2,1,0.5433124999981374,502.10612599994056,None,,001,2021_Mar_01_2138,GuessTheSound,2020.2.10,60.08824558388115,
Duck_A.wav,2,3,NEW,B,0,113,113,113,,,,,,,,,,,,,,,,,,,,,,,,,,,,,,,,,,,,,,,,,,,,,,,,,,,,,,,,,502.67365099978633,None,504.2048840999603,None,504.20008579990827,None,504.20008579990827,None,506.3059244998731,None,3,1,0.5334371998906136,506.3059244998731,None,,001,2021_Mar_01_2138,GuessTheSound,2020.2.10,60.08824558388115,
Initial/Repeat/Trumpet_B.wav,1,1,OLD,B,0,114,114,114,,,,,,,,,,,,,,,,,,,,,,,,,,,,,,,,,,,,,,,,,,,,,,,,,,,,,,,,,506.85926069994457,None,508.37194889979435,None,508.38056809990667,None,508.38056809990667,None,510.6060732000042,None,3,0,1.3087134000379592,510.6060732000042,None,,001,2021_Mar_01_2138,GuessTheSound,2020.2.10,60.08824558388115,
Initial/Repeat/PaperRip.wav,1,1,OLD,B,0,115,115,115,,,,,,,,,,,,,,,,,,,,,,,,,,,,,,,,,,,,,,,,,,,,,,,,,,,,,,,,,511.93956759991124,None,513.4548443999141,None,513.4632085999474,None,513.4632085999474,None,515.0555477999151,None,3,0,0.6402157000266016,515.0555477999151,None,,001,2021_Mar_01_2138,GuessTheSound,2020.2.10,60.08824558388115,
Initial/Repeat/Sneeze_B.wav,1,1,OLD,B,0,116,116,116,,,,,,,,,,,,,,,,,,,,,,,,,,,,,,,,,,,,,,,,,,,,,,,,,,,,,,,,,515.7233688998967,None,517.238359999936,None,517.2450907998718,None,517.2450907998718,None,518.4702883998398,None,3,0,0.821522600017488,518.4702883998398,None,,001,2021_Mar_01_2138,GuessTheSound,2020.2.10,60.08824558388115,
Pour_E.wav,2,3,NEW,B,0,117,117,117,,,,,,,,,,,,,,,,,,,,,,,,,,,,,,,,,,,,,,,,,,,,,,,,,,,,,,,,,519.3242252999917,None,520.8535056998487,None,520.8554610998835,None,520.8554610998835,None,523.0715411999263,None,3,1,0.44290639995597303,523.0715411999263,None,,001,2021_Mar_01_2138,GuessTheSound,2020.2.10,60.08824558388115,
Initial/Doubled/Cat_A.wav,1,1,OLD,B,0,118,118,118,,,,,,,,,,,,,,,,,,,,,,,,,,,,,,,,,,,,,,,,,,,,,,,,,,,,,,,,,523.5376232999843,None,525.0379862998146,None,525.0385134997778,None,525.0385134997778,None,526.4554355998989,None,3,0,0.3370640000794083,526.4554355998989,None,,001,2021_Mar_01_2138,GuessTheSound,2020.2.10,60.08824558388115,
Test/Foils/Slurp.wav,1,1,OLD,B,0,119,119,119,,,,,,,,,,,,,,,,,,,,,,,,,,,,,,,,,,,,,,,,,,,,,,,,,,,,,,,,,526.8251684999559,None,528.3381340998225,None,528.3475326998159,None,528.3475326998159,None,530.5722671998665,None,3,0,0.3285494998563081,530.5722671998665,None,,001,2021_Mar_01_2138,GuessTheSound,2020.2.10,60.08824558388115,
Test/Foils/Bullfrog.wav,1,1,OLD,B,0,120,120,120,,,,,,,,,,,,,,,,,,,,,,,,,,,,,,,,,,,,,,,,,,,,,,,,,,,,,,,,,530.9213610999286,None,532.4379424999468,None,532.4323517999146,None,532.4323517999146,None,534.6554436997976,None,3,0,0.5600020000711083,534.6554436997976,None,,001,2021_Mar_01_2138,GuessTheSound,2020.2.10,60.08824558388115,
Test/Foils/Wind_B.wav,1,1,OLD,B,0,121,121,121,,,,,,,,,,,,,,,,,,,,,,,,,,,,,,,,,,,,,,,,,,,,,,,,,,,,,,,,,535.2387389999349,None,536.7545171000063,None,536.7479730998166,None,536.7479730998166,None,538.9722085997928,None,3,0,0.21938530006445944,538.9722085997928,None,,001,2021_Mar_01_2138,GuessTheSound,2020.2.10,60.08824558388115,
Duck_D.wav,2,2,SIMILAR,B,0,122,122,122,,,,,,,,,,,,,,,,,,,,,,,,,,,,,,,,,,,,,,,,,,,,,,,,,,,,,,,,,539.2240817998536,None,540.7544601999223,None,540.7590732998215,None,540.7590732998215,None,542.9719444999937,None,3,0,0.6702507000882179,542.9719444999937,None,,001,2021_Mar_01_2138,GuessTheSound,2020.2.10,60.08824558388115,
Test/Foils/DialTone.wav,1,1,OLD,B,0,123,123,123,,,,,,,,,,,,,,,,,,,,,,,,,,,,,,,,,,,,,,,,,,,,,,,,,,,,,,,,,543.6749406999443,None,545.1879323998932,None,545.1987138998229,None,545.1987138998229,None,547.4221090998035,None,3,0,0.6053486000746489,547.4221090998035,None,,001,2021_Mar_01_2138,GuessTheSound,2020.2.10,60.08824558388115,
Initial/Repeat/Buzz.wav,1,1,OLD,B,0,124,124,124,,,,,,,,,,,,,,,,,,,,,,,,,,,,,,,,,,,,,,,,,,,,,,,,,,,,,,,,,548.0562372999266,None,549.5711693999823,None,549.5802667997777,None,549.5802667997777,None,551.8054183998611,None,3,0,0.3318245999980718,551.8054183998611,None,,001,2021_Mar_01_2138,GuessTheSound,2020.2.10,60.08824558388115,
Pour_C.wav,2,2,SIMILAR,B,0,125,125,125,,,,,,,,,,,,,,,,,,,,,,,,,,,,,,,,,,,,,,,,,,,,,,,,,,,,,,,,,552.1560246997979,None,553.6877610999625,None,553.6911084000021,None,553.6911084000021,None,555.9054791999515,None,2,1,0.4342355001717806,555.9054791999515,None,,001,2021_Mar_01_2138,GuessTheSound,2020.2.10,60.08824558388115,
Test/Foils/Typing.wav,1,1,OLD,B,0,126,126,126,,,,,,,,,,,,,,,,,,,,,,,,,,,,,,,,,,,,,,,,,,,,,,,,,,,,,,,,,556.3577141999267,None,557.8712112999987,None,557.8804800999351,None,557.8804800999351,None,560.105450999923,None,3,0,0.3640289001632482,560.105450999923,None,,001,2021_Mar_01_2138,GuessTheSound,2020.2.10,60.08824558388115,
