File,Correct,SoundFile,Correct2,Type,trials_2.thisRepN,trials_2.thisTrialN,trials_2.thisN,trials_2.thisIndex,PracticeTrials.thisRepN,PracticeTrials.thisTrialN,PracticeTrials.thisN,PracticeTrials.thisIndex,trials.thisRepN,trials.thisTrialN,trials.thisN,trials.thisIndex,InstructionTxt.started,InstructionTxt.stopped,WelcomContinue.started,WelcomContinue.stopped,VolumeBeginTxt.started,VolumeBeginTxt.stopped,VolumeContinueKey.keys,VolumeContinueKey.rt,VolumeContinueKey.started,VolumeContinueKey.stopped,text.started,text.stopped,Music.started,Music.stopped,AdjustContinue.started,AdjustContinue.stopped,HeadphoneCheckBeing.started,HeadphoneCheckBeing.stopped,HeadphoneContinue.started,HeadphoneContinue.stopped,HeadphoneContinueKey.keys,HeadphoneContinueKey.rt,HeadphoneContinueKey.started,HeadphoneContinueKey.stopped,CheckSound.started,CheckSound.stopped,QuestionTxt.started,QuestionTxt.stopped,CheckTrial.started,CheckTrial.stopped,CrossHeadphone.started,CrossHeadphone.stopped,CheckResp.keys,CheckResp.corr,CheckResp.rt,CheckResp.started,CheckResp.stopped,FeedbackTxt.started,FeedbackTxt.stopped,WelcomeTxt1.started,WelcomeTxt1.stopped,ContinueKey1.started,ContinueKey1.stopped,ContinueResp.keys,ContinueResp.rt,ContinueResp.started,ContinueResp.stopped,Welcome2Txt.started,Welcome2Txt.stopped,Wel2ContinueKey.keys,Wel2ContinueKey.rt,Wel2ContinueKey.started,Wel2ContinueKey.stopped,Continue2.started,Continue2.stopped,InstructionTxt2.started,InstructionTxt2.stopped,WelcomeContinue2.started,WelcomeContinue2.stopped,WelcomeContinueKey2.keys,WelcomeContinueKey2.rt,WelcomeContinueKey2.started,WelcomeContinueKey2.stopped,TrialNumber.started,TrialNumber.stopped,PracticeSound.started,PracticeSound.stopped,PracticeCross.started,PracticeCross.stopped,Practice_resp.keys,Practice_resp.corr,Practice_resp.rt,Practice_resp.started,Practice_resp.stopped,PracticeMssg.started,PracticeMssg.stopped,FeedbackCross.started,FeedbackCross.stopped,Continue.started,Continue.stopped,Options.started,Options.stopped,FeedbackMssg.started,FeedbackMssg.stopped,StartTxt.started,StartTxt.stopped,StartTast.keys,StartTast.rt,StartTast.started,StartTast.stopped,ContinueStart.started,ContinueStart.stopped,no_3.started,no_3.stopped,TargetSound.started,TargetSound.stopped,Cross.started,Cross.stopped,ItemNumber.started,ItemNumber.stopped,MSTQuestion.started,MSTQuestion.stopped,MSTResp.keys,MSTResp.corr,MSTResp.rt,MSTResp.started,MSTResp.stopped,participant,session,date,expName,psychopyVersion,frameRate,
,,,,,,,,,,,,,,,,,9.875003200024366,None,9.875003200024366,None,10.762760899960995,None,space,0.38079630001448095,10.762760899960995,None,,,,,,,,,,,,,,,,,,,,,,,,,,,,,,,,,,,,,,,,,,,,,,,,,,,,,,,,,,,,,,,,,,,,,,,,,,,,,,,,,,,,,,,,,,,,,,,,,,,001,2021_Feb_22_1132,GuessTheSound,2020.2.10,60.00708083356939,
,,,,,,,,,,,,,,,,,,,,,,,,,,,11.181704599992372,None,11.179666879959406,None,11.181704599992372,None,11.579931800020859,None,11.579931800020859,None,space,0.3224806000944227,11.579931800020859,None,,,,,,,,,,,,,,,,,,,,,,,,,,,,,,,,,,,,,,,,,,,,,,,,,,,,,,,,,,,,,,,,,,,,,,,,,,,,,,,,,,,,,001,2021_Feb_22_1132,GuessTheSound,2020.2.10,60.00708083356939,
Headphone/t3_1.wav,3,,,,0,0,0,4,,,,,,,,,,,,,,,,,,,,,,,,,,,,,,,,,11.99620099994354,None,16.51230669999495,None,11.99264770001173,16.529188700020313,11.99264770001173,16.529188700020313,3,1,0.7646206999197602,16.51230669999495,None,17.304541599936783,None,,,,,,,,,,,,,,,,,,,,,,,,,,,,,,,,,,,,,,,,,,,,,,,,,,,,,,,,,,,,,,,,,,,,,,001,2021_Feb_22_1132,GuessTheSound,2020.2.10,60.00708083356939,
Headphone/t1_2.wav,1,,,,0,1,1,1,,,,,,,,,,,,,,,,,,,,,,,,,,,,,,,,,18.328999080020004,None,22.862442399957217,None,18.3280020999955,22.862442399957217,18.3280020999955,22.862442399957217,2,0,0.30786399997305125,22.862442399957217,None,23.195198699948378,None,,,,,,,,,,,,,,,,,,,,,,,,,,,,,,,,,,,,,,,,,,,,,,,,,,,,,,,,,,,,,,,,,,,,,,001,2021_Feb_22_1132,GuessTheSound,2020.2.10,60.00708083356939,
Headphone/t2_1.wav,2,,,,0,2,2,2,,,,,,,,,,,,,,,,,,,,,,,,,,,,,,,,,24.212202179967427,None,28.729154899949208,None,24.203776499954984,28.745562099968083,24.203776499954984,28.745562099968083,3,0,0.5094472999917343,28.729154899949208,None,29.261929400032386,None,,,,,,,,,,,,,,,,,,,,,,,,,,,,,,,,,,,,,,,,,,,,,,,,,,,,,,,,,,,,,,,,,,,,,,001,2021_Feb_22_1132,GuessTheSound,2020.2.10,60.00708083356939,
Headphone/t3_2.wav,3,,,,0,3,3,5,,,,,,,,,,,,,,,,,,,,,,,,,,,,,,,,,30.278575180005284,None,34.79570010001771,None,30.26996579999104,34.812316600000486,30.26996579999104,34.812316600000486,3,1,0.291254400042817,34.79570010001771,None,35.111808000016026,None,,,,,,,,,,,,,,,,,,,,,,,,,,,,,,,,,,,,,,,,,,,,,,,,,,,,,,,,,,,,,,,,,,,,,,001,2021_Feb_22_1132,GuessTheSound,2020.2.10,60.00708083356939,
Headphone/t1_1.wav,1,,,,0,4,4,0,,,,,,,,,,,,,,,,,,,,,,,,,,,,,,,,,36.145251119951716,None,40.662258099997416,None,36.141651100013405,40.679145099944435,36.141651100013405,40.679145099944435,3,0,0.26136099989525974,40.662258099997416,None,40.94511740002781,None,,,,,,,,,,,,,,,,,,,,,,,,,,,,,,,,,,,,,,,,,,,,,,,,,,,,,,,,,,,,,,,,,,,,,,001,2021_Feb_22_1132,GuessTheSound,2020.2.10,60.00708083356939,
Headphone/t2_2.wav,2,,,,0,5,5,3,,,,,,,,,,,,,,,,,,,,,,,,,,,,,,,,,41.9452879399294,None,46.47884180000983,None,41.95199380000122,46.49542739999015,41.95199380000122,46.49542739999015,2,1,0.4484617999987677,46.47884180000983,None,46.94512649998069,None,,,,,,,,,,,,,,,,,,,,,,,,,,,,,,,,,,,,,,,,,,,,,,,,,,,,,,,,,,,,,,,,,,,,,,001,2021_Feb_22_1132,GuessTheSound,2020.2.10,60.00708083356939,
,,,,,,,,,,,,,,,,,,,,,,,,,,,,,,,,,,,,,,,,,,,,,,,,,,,,,,,,47.94630790001247,None,47.94630790001247,None,space,1.6097381999716163,47.94630790001247,None,,,,,,,,,,,,,,,,,,,,,,,,,,,,,,,,,,,,,,,,,,,,,,,,,,,,,,,,,,,,,,001,2021_Feb_22_1132,GuessTheSound,2020.2.10,60.00708083356939,
,,,,,,,,,,,,,,,,,,,,,,,,,,,,,,,,,,,,,,,,,,,,,,,,,,,,,,,,,,,,,,,,49.579498399980366,None,space,0.8631879999302328,49.579498399980366,None,,,,,,,,,,,,,,,,,,,,,,,,,,,,,,,,,,,,,,,,,,,,,,,,,,,,,,,,001,2021_Feb_22_1132,GuessTheSound,2020.2.10,60.00708083356939,
,,,,,,,,,,,,,,,,,,,,,,,,,,,,,,,,,,,,,,,,,,,,,,,,,,,,,,,,,,,,,,,,,,,,,,49.579498399980366,None,50.46226259996183,None,50.46226259996183,None,space,0.5327977000270039,50.46226259996183,None,,,,,,,,,,,,,,,,,,,,,,,,,,,,,,,,,,,,,,,,,,,,,,001,2021_Feb_22_1132,GuessTheSound,2020.2.10,60.00708083356939,
,2,Practice/Seagull_A.wav,3,NEW,,,,,0,0,0,0,,,,,,,,,,,,,,,,,,,,,,,,,,,,,,,,,,,,,,,,,,,,,,,,,,,,,,,,,,,,,,,,,,,,51.07431820000056,None,51.07967149990145,None,51.07431820000056,None,3,1,1.33241180004552,53.350277599995025,None,53.350277599995025,None,53.350277599995025,None,53.350277599995025,None,53.350277599995025,None,54.695056900032796,None,,,,,,,,,,,,,,,,,,,,,,,,,001,2021_Feb_22_1132,GuessTheSound,2020.2.10,60.00708083356939,
,2,Practice/Skid_B.wav,3,NEW,,,,,0,1,1,1,,,,,,,,,,,,,,,,,,,,,,,,,,,,,,,,,,,,,,,,,,,,,,,,,,,,,,,,,,,,,,,,,,,,55.72828010004014,57.82823879993521,55.72825481996406,None,55.72828010004014,57.82823879993521,3,1,0.5575941998977214,57.8453998999903,None,57.8453998999903,None,57.8453998999903,None,57.8453998999903,None,57.8453998999903,None,58.42863750003744,None,,,,,,,,,,,,,,,,,,,,,,,,,001,2021_Feb_22_1132,GuessTheSound,2020.2.10,60.00708083356939,
,1,Practice/Seagull_A.wav,1,OLD,,,,,0,2,2,2,,,,,,,,,,,,,,,,,,,,,,,,,,,,,,,,,,,,,,,,,,,,,,,,,,,,,,,,,,,,,,,,,,,,59.42829810001422,None,59.42822993996087,None,59.42829810001422,None,3,0,0.37231220002286136,61.695796599960886,None,61.695796599960886,None,61.695796599960886,None,61.695796599960886,None,61.695796599960886,None,62.095007300027646,None,,,,,,,,,,,,,,,,,,,,,,,,,001,2021_Feb_22_1132,GuessTheSound,2020.2.10,60.00708083356939,
,2,Practice/Gargle_A.wav,3,NEW,,,,,0,3,3,3,,,,,,,,,,,,,,,,,,,,,,,,,,,,,,,,,,,,,,,,,,,,,,,,,,,,,,,,,,,,,,,,,,,,63.10453729995061,None,63.1115760799963,None,63.10453729995061,None,3,1,2.1671005999669433,65.37880159995984,None,65.37880159995984,None,65.37880159995984,None,65.37880159995984,None,65.37880159995984,None,67.56180290004704,None,,,,,,,,,,,,,,,,,,,,,,,,,001,2021_Feb_22_1132,GuessTheSound,2020.2.10,60.00708083356939,
,2,Practice/Gargle_B.wav,2,SIMILAR,,,,,0,4,4,4,,,,,,,,,,,,,,,,,,,,,,,,,,,,,,,,,,,,,,,,,,,,,,,,,,,,,,,,,,,,,,,,,,,,68.57006459997501,None,68.57838888003025,None,68.57006459997501,None,2,1,0.44756590004544705,70.62995570001658,None,70.62995570001658,None,70.62995570001658,None,70.62995570001658,None,70.62995570001658,None,71.09483209997416,None,,,,,,,,,,,,,,,,,,,,,,,,,001,2021_Feb_22_1132,GuessTheSound,2020.2.10,60.00708083356939,
,,,,,,,,,,,,,,,,,,,,,,,,,,,,,,,,,,,,,,,,,,,,,,,,,,,,,,,,,,,,,,,,,,,,,,,,,,,,,,,,,,,,,,,,,,,,,,,,,,,,,72.09549930004869,None,space,1.8899385000113398,72.09549930004869,None,,,,,,,,,,,,,,,,,,,001,2021_Feb_22_1132,GuessTheSound,2020.2.10,60.00708083356939,
,2,Elephant_C.wav,3,NEW,,,,,,,,,0,0,0,0,,,,,,,,,,,,,,,,,,,,,,,,,,,,,,,,,,,,,,,,,,,,,,,,,,,,,,,,,,,,,,,,,,,,,,,,,,,,,,,,,,,,,,,,,,,72.09549930004869,None,74.0493686000118,None,75.54488007994368,None,75.53905409993604,None,75.53905409993604,None,78.41241320001427,None,3,1,0.9041766000445932,78.41241320001427,None,,001,2021_Feb_22_1132,GuessTheSound,2020.2.10,60.00708083356939,
,2,Initial/NoRepeat/Thunder_A.wav,3,NEW,,,,,,,,,0,1,1,1,,,,,,,,,,,,,,,,,,,,,,,,,,,,,,,,,,,,,,,,,,,,,,,,,,,,,,,,,,,,,,,,,,,,,,,,,,,,,,,,,,,,,,,,,,,,,79.344705699943,None,80.86161737996153,None,80.8549935000483,None,80.8549935000483,None,83.72916440002155,None,3,1,0.2882900000549853,83.72916440002155,None,,001,2021_Feb_22_1132,GuessTheSound,2020.2.10,60.00708083356939,
,2,Test/Lures/Chime_B.wav,3,NEW,,,,,,,,,0,2,2,2,,,,,,,,,,,,,,,,,,,,,,,,,,,,,,,,,,,,,,,,,,,,,,,,,,,,,,,,,,,,,,,,,,,,,,,,,,,,,,,,,,,,,,,,,,,,,84.04463190003298,None,85.56158067998476,None,85.55870249995496,None,85.55870249995496,None,88.37901429994963,None,3,1,0.004329900024458766,88.37901429994963,None,,001,2021_Feb_22_1132,GuessTheSound,2020.2.10,60.00708083356939,
,2,Initial/NoRepeat/Toilet_B.wav,3,NEW,,,,,,,,,0,3,3,3,,,,,,,,,,,,,,,,,,,,,,,,,,,,,,,,,,,,,,,,,,,,,,,,,,,,,,,,,,,,,,,,,,,,,,,,,,,,,,,,,,,,,,,,,,,,,88.41187830001581,None,89.92797277998179,None,89.92064719996415,None,89.92064719996415,None,92.79631789994892,None,3,1,0.28173530008643866,92.79631789994892,None,,001,2021_Feb_22_1132,GuessTheSound,2020.2.10,60.00708083356939,
,2,Test/Foils/Typing.wav,3,NEW,,,,,,,,,0,4,4,4,,,,,,,,,,,,,,,,,,,,,,,,,,,,,,,,,,,,,,,,,,,,,,,,,,,,,,,,,,,,,,,,,,,,,,,,,,,,,,,,,,,,,,,,,,,,,93.09481090004556,None,94.59502184002194,None,94.60046770004556,None,94.60046770004556,None,97.46242280001752,None,3,1,0.45847860001958907,97.46242280001752,None,,001,2021_Feb_22_1132,GuessTheSound,2020.2.10,60.00708083356939,
,2,Initial/Repeat/Pour.wav,3,NEW,,,,,,,,,0,5,5,5,,,,,,,,,,,,,,,,,,,,,,,,,,,,,,,,,,,,,,,,,,,,,,,,,,,,,,,,,,,,,,,,,,,,,,,,,,,,,,,,,,,,,,,,,,,,,97.94483749999199,None,99.44482404000591,None,99.44777700002305,None,99.44777700002305,None,102.02997589996085,None,3,1,0.2746544999536127,102.02997589996085,None,,001,2021_Feb_22_1132,GuessTheSound,2020.2.10,60.00708083356939,
,2,Initial/NoRepeat/Sleighbells_B.wav,3,NEW,,,,,,,,,0,6,6,6,,,,,,,,,,,,,,,,,,,,,,,,,,,,,,,,,,,,,,,,,,,,,,,,,,,,,,,,,,,,,,,,,,,,,,,,,,,,,,,,,,,,,,,,,,,,,102.328137399978,None,103.86164111990946,None,103.85800849995576,None,103.85800849995576,None,106.27954959997442,None,3,1,0.21543709991965443,106.27954959997442,None,,001,2021_Feb_22_1132,GuessTheSound,2020.2.10,60.00708083356939,
,2,Initial/Repeat/Buzz.wav,3,NEW,,,,,,,,,0,7,7,7,,,,,,,,,,,,,,,,,,,,,,,,,,,,,,,,,,,,,,,,,,,,,,,,,,,,,,,,,,,,,,,,,,,,,,,,,,,,,,,,,,,,,,,,,,,,,106.51517779997084,None,108.04493598002009,None,108.04498649993911,None,108.04498649993911,None,110.34565909998491,None,3,1,0.24917300010565668,110.34565909998491,None,,001,2021_Feb_22_1132,GuessTheSound,2020.2.10,60.00708083356939,
,2,Baby_F.wav,3,NEW,,,,,,,,,0,8,8,8,,,,,,,,,,,,,,,,,,,,,,,,,,,,,,,,,,,,,,,,,,,,,,,,,,,,,,,,,,,,,,,,,,,,,,,,,,,,,,,,,,,,,,,,,,,,,110.6162592000328,None,112.14476717999204,None,112.14625180000439,None,112.14625180000439,None,114.29550679994281,None,3,1,0.5368607999989763,114.29550679994281,None,,001,2021_Feb_22_1132,GuessTheSound,2020.2.10,60.00708083356939,
,1,Initial/NoRepeat/Thunder_A.wav,1,OLD,,,,,,,,,0,9,9,9,,,,,,,,,,,,,,,,,,,,,,,,,,,,,,,,,,,,,,,,,,,,,,,,,,,,,,,,,,,,,,,,,,,,,,,,,,,,,,,,,,,,,,,,,,,,,114.86222130001988,None,116.37832377993035,None,116.38087789993733,None,116.38087789993733,None,119.24594759999309,None,1,1,0.38066869997419417,119.24594759999309,None,,001,2021_Feb_22_1132,GuessTheSound,2020.2.10,60.00708083356939,
,2,Initial/NoRepeat/Mosquito_B.wav,3,NEW,,,,,,,,,0,10,10,10,,,,,,,,,,,,,,,,,,,,,,,,,,,,,,,,,,,,,,,,,,,,,,,,,,,,,,,,,,,,,,,,,,,,,,,,,,,,,,,,,,,,,,,,,,,,,119.64664479997009,None,121.17830107992049,None,121.18498350004666,None,121.18498350004666,None,123.32912180002313,None,3,1,0.5896510999882594,123.32912180002313,None,,001,2021_Feb_22_1132,GuessTheSound,2020.2.10,60.00708083356939,
,2,Test/Foils/DialTone.wav,3,NEW,,,,,,,,,0,11,11,11,,,,,,,,,,,,,,,,,,,,,,,,,,,,,,,,,,,,,,,,,,,,,,,,,,,,,,,,,,,,,,,,,,,,,,,,,,,,,,,,,,,,,,,,,,,,,123.94461530004628,None,125.49504295997322,None,125.49810399999842,None,125.49810399999842,None,128.01215850003064,None,3,1,0.30243060004431754,128.01215850003064,None,,001,2021_Feb_22_1132,GuessTheSound,2020.2.10,60.00708083356939,
,2,Elephant_D.wav,2,SIMILAR,,,,,,,,,0,12,12,12,,,,,,,,,,,,,,,,,,,,,,,,,,,,,,,,,,,,,,,,,,,,,,,,,,,,,,,,,,,,,,,,,,,,,,,,,,,,,,,,,,,,,,,,,,,,,128.33039180003107,None,129.86123377995102,None,129.8582427999936,None,129.8582427999936,None,132.72924100002274,None,2,1,0.417674099910073,132.72924100002274,None,,001,2021_Feb_22_1132,GuessTheSound,2020.2.10,60.00708083356939,
,2,Initial/Doubled/Writing_A.wav,3,NEW,,,,,,,,,0,13,13,13,,,,,,,,,,,,,,,,,,,,,,,,,,,,,,,,,,,,,,,,,,,,,,,,,,,,,,,,,,,,,,,,,,,,,,,,,,,,,,,,,,,,,,,,,,,,,133.16395940002985,None,134.7112344199326,None,134.719533400028,None,134.719533400028,None,137.41214499995112,None,3,1,0.31455700006335974,137.41214499995112,None,,001,2021_Feb_22_1132,GuessTheSound,2020.2.10,60.00708083356939,
,2,Initial/NoRepeat/Faucet_A.wav,3,NEW,,,,,,,,,0,14,14,14,,,,,,,,,,,,,,,,,,,,,,,,,,,,,,,,,,,,,,,,,,,,,,,,,,,,,,,,,,,,,,,,,,,,,,,,,,,,,,,,,,,,,,,,,,,,,137.74645069998223,None,139.3115113599226,None,139.32261889998335,None,139.32261889998335,None,141.81234249996487,None,1,0,1.2445126998936757,141.81234249996487,None,,001,2021_Feb_22_1132,GuessTheSound,2020.2.10,60.00708083356939,
,1,Test/Foils/Typing.wav,1,OLD,,,,,,,,,0,15,15,15,,,,,,,,,,,,,,,,,,,,,,,,,,,,,,,,,,,,,,,,,,,,,,,,,,,,,,,,,,,,,,,,,,,,,,,,,,,,,,,,,,,,,,,,,,,,,143.07784309994895,None,144.59449277995157,None,144.59243429999333,None,144.59243429999333,None,147.4619980000425,None,1,1,0.4078467000508681,147.4619980000425,None,,001,2021_Feb_22_1132,GuessTheSound,2020.2.10,60.00708083356939,
,1,Initial/NoRepeat/Sleighbells_B.wav,1,OLD,,,,,,,,,0,16,16,16,,,,,,,,,,,,,,,,,,,,,,,,,,,,,,,,,,,,,,,,,,,,,,,,,,,,,,,,,,,,,,,,,,,,,,,,,,,,,,,,,,,,,,,,,,,,,147.8954896000214,None,149.41135307997467,None,149.41069029993378,None,149.41069029993378,None,151.82892200001515,None,3,0,0.49551629996858537,151.82892200001515,None,,001,2021_Feb_22_1132,GuessTheSound,2020.2.10,60.00708083356939,
,2,Test/Foils/Wind_B.wav,3,NEW,,,,,,,,,0,17,17,17,,,,,,,,,,,,,,,,,,,,,,,,,,,,,,,,,,,,,,,,,,,,,,,,,,,,,,,,,,,,,,,,,,,,,,,,,,,,,,,,,,,,,,,,,,,,,152.3462502999464,None,153.91143555990422,None,153.90898429998197,None,153.90898429998197,None,156.64684079994913,None,3,1,0.30351850006263703,156.64684079994913,None,,001,2021_Feb_22_1132,GuessTheSound,2020.2.10,60.00708083356939,
,1,Initial/NoRepeat/Toilet_B.wav,1,OLD,,,,,,,,,0,18,18,18,,,,,,,,,,,,,,,,,,,,,,,,,,,,,,,,,,,,,,,,,,,,,,,,,,,,,,,,,,,,,,,,,,,,,,,,,,,,,,,,,,,,,,,,,,,,,156.9836241999874,None,158.51123367997354,None,158.50661359995138,None,158.50661359995138,None,161.3785358000314,None,1,1,0.8808346999576315,161.3785358000314,None,,001,2021_Feb_22_1132,GuessTheSound,2020.2.10,60.00708083356939,
,2,Pour_C.wav,2,SIMILAR,,,,,,,,,0,19,19,19,,,,,,,,,,,,,,,,,,,,,,,,,,,,,,,,,,,,,,,,,,,,,,,,,,,,,,,,,,,,,,,,,,,,,,,,,,,,,,,,,,,,,,,,,,,,,162.2797098000301,None,163.81125018002933,None,163.81493510003202,None,163.81493510003202,None,166.6787971999729,None,3,0,0.5405694999499246,166.6787971999729,None,,001,2021_Feb_22_1132,GuessTheSound,2020.2.10,60.00708083356939,
,2,Initial/Doubled/Chime_A.wav,2,SIMILAR,,,,,,,,,0,20,20,20,,,,,,,,,,,,,,,,,,,,,,,,,,,,,,,,,,,,,,,,,,,,,,,,,,,,,,,,,,,,,,,,,,,,,,,,,,,,,,,,,,,,,,,,,,,,,167.2461922999937,None,168.77795108002613,None,168.78252639994025,None,168.78252639994025,None,171.61164180003107,None,2,1,0.6150708999484777,171.61164180003107,None,,001,2021_Feb_22_1132,GuessTheSound,2020.2.10,60.00708083356939,
,1,Initial/Repeat/Buzz.wav,1,OLD,,,,,,,,,0,21,21,21,,,,,,,,,,,,,,,,,,,,,,,,,,,,,,,,,,,,,,,,,,,,,,,,,,,,,,,,,,,,,,,,,,,,,,,,,,,,,,,,,,,,,,,,,,,,,172.24489239999093,None,173.76061013999862,None,173.76086090004537,None,173.76086090004537,None,176.06175809993874,None,1,1,0.3202240999089554,176.06175809993874,None,,001,2021_Feb_22_1132,GuessTheSound,2020.2.10,60.00708083356939,
,2,Writing_C.wav,2,SIMILAR,,,,,,,,,0,22,22,22,,,,,,,,,,,,,,,,,,,,,,,,,,,,,,,,,,,,,,,,,,,,,,,,,,,,,,,,,,,,,,,,,,,,,,,,,,,,,,,,,,,,,,,,,,,,,176.41081070003565,None,177.9275518799201,None,177.93337859993335,None,177.93337859993335,None,180.64494319993537,None,2,1,0.8651318000629544,180.64494319993537,None,,001,2021_Feb_22_1132,GuessTheSound,2020.2.10,60.00708083356939,
,1,Initial/NoRepeat/Mosquito_B.wav,1,OLD,,,,,,,,,0,23,23,23,,,,,,,,,,,,,,,,,,,,,,,,,,,,,,,,,,,,,,,,,,,,,,,,,,,,,,,,,,,,,,,,,,,,,,,,,,,,,,,,,,,,,,,,,,,,,181.53008069994394,None,183.04434004002252,None,183.05490009998903,None,183.05490009998903,None,185.19517349998932,None,1,1,0.41043899999931455,185.19517349998932,None,,001,2021_Feb_22_1132,GuessTheSound,2020.2.10,60.00708083356939,
,2,Initial/Doubled/Cough_A.wav,3,NEW,,,,,,,,,0,24,24,24,,,,,,,,,,,,,,,,,,,,,,,,,,,,,,,,,,,,,,,,,,,,,,,,,,,,,,,,,,,,,,,,,,,,,,,,,,,,,,,,,,,,,,,,,,,,,185.62839690002147,None,187.14417264000514,None,187.14894790004473,None,187.14894790004473,None,188.86152459995355,None,3,1,0.48606900009326637,188.86152459995355,None,,001,2021_Feb_22_1132,GuessTheSound,2020.2.10,60.00708083356939,
,1,Test/Foils/DialTone.wav,1,OLD,,,,,,,,,0,25,25,25,,,,,,,,,,,,,,,,,,,,,,,,,,,,,,,,,,,,,,,,,,,,,,,,,,,,,,,,,,,,,,,,,,,,,,,,,,,,,,,,,,,,,,,,,,,,,189.36241429997608,None,190.87740653993097,None,190.8905139999697,None,190.8905139999697,None,193.3947640999686,None,3,0,0.680591500014998,193.3947640999686,None,,001,2021_Feb_22_1132,GuessTheSound,2020.2.10,60.00708083356939,
,2,Initial/NoRepeat/Puff_A.wav,3,NEW,,,,,,,,,0,26,26,26,,,,,,,,,,,,,,,,,,,,,,,,,,,,,,,,,,,,,,,,,,,,,,,,,,,,,,,,,,,,,,,,,,,,,,,,,,,,,,,,,,,,,,,,,,,,,194.10364560002927,None,195.62729368000294,None,195.6298378999345,None,195.6298378999345,None,197.32856279995758,None,3,1,0.5289464000379667,197.32856279995758,None,,001,2021_Feb_22_1132,GuessTheSound,2020.2.10,60.00708083356939,
,2,Test/Foils/Heartbeat.wav,3,NEW,,,,,,,,,0,27,27,27,,,,,,,,,,,,,,,,,,,,,,,,,,,,,,,,,,,,,,,,,,,,,,,,,,,,,,,,,,,,,,,,,,,,,,,,,,,,,,,,,,,,,,,,,,,,,197.88029909995385,None,199.42765231998638,None,199.42879070003983,None,199.42879070003983,None,201.84504509996623,None,3,1,0.09321439999621361,201.84504509996623,None,,001,2021_Feb_22_1132,GuessTheSound,2020.2.10,60.00708083356939,
,2,Initial/Repeat/IceDrop.wav,3,NEW,,,,,,,,,0,28,28,28,,,,,,,,,,,,,,,,,,,,,,,,,,,,,,,,,,,,,,,,,,,,,,,,,,,,,,,,,,,,,,,,,,,,,,,,,,,,,,,,,,,,,,,,,,,,,201.96018870000262,None,203.4774795799982,None,203.4888850999996,None,203.4888850999996,None,206.2451622999506,None,3,1,0.2821057999972254,206.2451622999506,None,,001,2021_Feb_22_1132,GuessTheSound,2020.2.10,60.00708083356939,
,2,Bird_D.wav,3,NEW,,,,,,,,,0,29,29,29,,,,,,,,,,,,,,,,,,,,,,,,,,,,,,,,,,,,,,,,,,,,,,,,,,,,,,,,,,,,,,,,,,,,,,,,,,,,,,,,,,,,,,,,,,,,,206.54666480002925,None,208.07755948000124,None,208.0806207000278,None,208.0806207000278,None,209.42823129997123,None,3,1,0.587821300025098,209.42823129997123,None,,001,2021_Feb_22_1132,GuessTheSound,2020.2.10,60.00708083356939,
,2,Baby_E.wav,2,SIMILAR,,,,,,,,,0,30,30,30,,,,,,,,,,,,,,,,,,,,,,,,,,,,,,,,,,,,,,,,,,,,,,,,,,,,,,,,,,,,,,,,,,,,,,,,,,,,,,,,,,,,,,,,,,,,,210.04586099996231,None,211.5774741799338,None,211.58436750003602,None,211.58436750003602,None,213.8951459999662,None,2,1,0.3418172999517992,213.8951459999662,None,,001,2021_Feb_22_1132,GuessTheSound,2020.2.10,60.00708083356939,
,2,Faucet_B.wav,2,SIMILAR,,,,,,,,,0,31,31,31,,,,,,,,,,,,,,,,,,,,,,,,,,,,,,,,,,,,,,,,,,,,,,,,,,,,,,,,,,,,,,,,,,,,,,,,,,,,,,,,,,,,,,,,,,,,,214.26169800001662,None,215.79373587996236,None,215.79680989996996,None,215.79680989996996,None,218.59487579995766,None,2,1,1.3686245999997482,218.59487579995766,None,,001,2021_Feb_22_1132,GuessTheSound,2020.2.10,60.00708083356939,
,2,Duck_A.wav,3,NEW,,,,,,,,,0,32,32,32,,,,,,,,,,,,,,,,,,,,,,,,,,,,,,,,,,,,,,,,,,,,,,,,,,,,,,,,,,,,,,,,,,,,,,,,,,,,,,,,,,,,,,,,,,,,,219.9965394999599,None,221.52713077994997,None,221.53394069999922,None,221.53394069999922,None,223.62821480003186,None,3,1,0.5665857000276446,223.62821480003186,None,,001,2021_Feb_22_1132,GuessTheSound,2020.2.10,60.00708083356939,
,2,Initial/Doubled/Laugh_A.wav,3,NEW,,,,,,,,,0,33,33,33,,,,,,,,,,,,,,,,,,,,,,,,,,,,,,,,,,,,,,,,,,,,,,,,,,,,,,,,,,,,,,,,,,,,,,,,,,,,,,,,,,,,,,,,,,,,,224.2113828000147,None,225.72730607995766,None,225.73531669995282,None,225.73531669995282,None,228.44453169999178,None,3,1,0.7000058999983594,228.44453169999178,None,,001,2021_Feb_22_1132,GuessTheSound,2020.2.10,60.00708083356939,
,1,Test/Foils/Wind_B.wav,1,OLD,,,,,,,,,0,34,34,34,,,,,,,,,,,,,,,,,,,,,,,,,,,,,,,,,,,,,,,,,,,,,,,,,,,,,,,,,,,,,,,,,,,,,,,,,,,,,,,,,,,,,,,,,,,,,229.1625055000186,None,230.69356227994433,None,230.68846960004885,None,230.68846960004885,None,233.42754870001227,None,3,0,0.5403221000451595,233.42754870001227,None,,001,2021_Feb_22_1132,GuessTheSound,2020.2.10,60.00708083356939,
,2,Initial/Doubled/Chicken_A.wav,3,NEW,,,,,,,,,0,35,35,35,,,,,,,,,,,,,,,,,,,,,,,,,,,,,,,,,,,,,,,,,,,,,,,,,,,,,,,,,,,,,,,,,,,,,,,,,,,,,,,,,,,,,,,,,,,,,233.9934676999692,None,235.5105680800276,None,235.51775989995804,None,235.51775989995804,None,237.19457399996463,None,3,1,0.7013165999669582,237.19457399996463,None,,001,2021_Feb_22_1132,GuessTheSound,2020.2.10,60.00708083356939,
,2,Test/Lures/Guitar_B.wav,3,NEW,,,,,,,,,0,36,36,36,,,,,,,,,,,,,,,,,,,,,,,,,,,,,,,,,,,,,,,,,,,,,,,,,,,,,,,,,,,,,,,,,,,,,,,,,,,,,,,,,,,,,,,,,,,,,237.9126310000429,None,239.47681065991057,None,239.47552650002763,None,239.47552650002763,None,241.79277970001567,None,3,1,0.3039932999527082,241.79277970001567,None,,001,2021_Feb_22_1132,GuessTheSound,2020.2.10,60.00708083356939,
,2,Initial/Repeat/Cello.wav,3,NEW,,,,,,,,,0,37,37,37,,,,,,,,,,,,,,,,,,,,,,,,,,,,,,,,,,,,,,,,,,,,,,,,,,,,,,,,,,,,,,,,,,,,,,,,,,,,,,,,,,,,,,,,,,,,,242.1253982000053,None,243.64218047996985,None,243.64815539994743,None,243.64815539994743,None,246.52727009996306,None,3,1,0.34154050005599856,246.52727009996306,None,,001,2021_Feb_22_1132,GuessTheSound,2020.2.10,60.00708083356939,
,1,Test/Foils/Heartbeat.wav,1,OLD,,,,,,,,,0,38,38,38,,,,,,,,,,,,,,,,,,,,,,,,,,,,,,,,,,,,,,,,,,,,,,,,,,,,,,,,,,,,,,,,,,,,,,,,,,,,,,,,,,,,,,,,,,,,,246.8936784999678,None,248.41029657996262,None,248.40678359998856,None,248.40678359998856,None,250.82789269997738,None,1,1,0.29451829998288304,250.82789269997738,None,,001,2021_Feb_22_1132,GuessTheSound,2020.2.10,60.00708083356939,
,2,Initial/Repeat/Airplane_B.wav,3,NEW,,,,,,,,,0,39,39,39,,,,,,,,,,,,,,,,,,,,,,,,,,,,,,,,,,,,,,,,,,,,,,,,,,,,,,,,,,,,,,,,,,,,,,,,,,,,,,,,,,,,,,,,,,,,,251.1452143000206,None,252.6770279800054,None,252.68255519995,None,252.68255519995,None,255.294408799964,None,3,1,0.328789500053972,255.294408799964,None,,001,2021_Feb_22_1132,GuessTheSound,2020.2.10,60.00708083356939,
,2,Cough_E.wav,2,SIMILAR,,,,,,,,,0,40,40,40,,,,,,,,,,,,,,,,,,,,,,,,,,,,,,,,,,,,,,,,,,,,,,,,,,,,,,,,,,,,,,,,,,,,,,,,,,,,,,,,,,,,,,,,,,,,,255.64570610004012,None,257.1768191799289,None,257.17091059999075,None,257.17091059999075,None,258.910812899936,None,3,0,0.5541434000479057,258.910812899936,None,,001,2021_Feb_22_1132,GuessTheSound,2020.2.10,60.00708083356939,
,2,Initial/Repeat/Trumpet_B.wav,3,NEW,,,,,,,,,0,41,41,41,,,,,,,,,,,,,,,,,,,,,,,,,,,,,,,,,,,,,,,,,,,,,,,,,,,,,,,,,,,,,,,,,,,,,,,,,,,,,,,,,,,,,,,,,,,,,259.49331829999574,None,261.00994597994725,None,261.0130444000242,None,261.0130444000242,None,263.31086550001055,None,3,1,0.34908449999056756,263.31086550001055,None,,001,2021_Feb_22_1132,GuessTheSound,2020.2.10,60.00708083356939,
,1,Initial/Repeat/IceDrop.wav,1,OLD,,,,,,,,,0,42,42,42,,,,,,,,,,,,,,,,,,,,,,,,,,,,,,,,,,,,,,,,,,,,,,,,,,,,,,,,,,,,,,,,,,,,,,,,,,,,,,,,,,,,,,,,,,,,,263.67839120002463,None,265.2098731799284,None,265.2041605999693,None,265.2041605999693,None,267.96006049995776,None,1,1,0.43139919999521226,267.96006049995776,None,,001,2021_Feb_22_1132,GuessTheSound,2020.2.10,60.00708083356939,
,2,Initial/Repeat/Sneeze_B.wav,3,NEW,,,,,,,,,0,43,43,43,,,,,,,,,,,,,,,,,,,,,,,,,,,,,,,,,,,,,,,,,,,,,,,,,,,,,,,,,,,,,,,,,,,,,,,,,,,,,,,,,,,,,,,,,,,,,268.4105769000016,None,269.9097387400223,None,269.9096936000278,None,269.9096936000278,None,271.1442787999986,None,3,1,0.5601957999169827,271.1442787999986,None,,001,2021_Feb_22_1132,GuessTheSound,2020.2.10,60.00708083356939,
,1,Initial/NoRepeat/Puff_A.wav,1,OLD,,,,,,,,,0,44,44,44,,,,,,,,,,,,,,,,,,,,,,,,,,,,,,,,,,,,,,,,,,,,,,,,,,,,,,,,,,,,,,,,,,,,,,,,,,,,,,,,,,,,,,,,,,,,,271.72733959998004,None,273.2266970399767,None,273.2387188000139,None,273.2387188000139,None,274.94427720003296,None,1,1,0.25828849989920855,274.94427720003296,None,,001,2021_Feb_22_1132,GuessTheSound,2020.2.10,60.00708083356939,
,2,Chick_A.wav,2,SIMILAR,,,,,,,,,0,45,45,45,,,,,,,,,,,,,,,,,,,,,,,,,,,,,,,,,,,,,,,,,,,,,,,,,,,,,,,,,,,,,,,,,,,,,,,,,,,,,,,,,,,,,,,,,,,,,275.22774550004397,None,276.75982847998387,None,276.7629885999486,None,276.7629885999486,None,278.47739879996516,None,2,1,1.5158581000287086,278.47739879996516,None,,001,2021_Feb_22_1132,GuessTheSound,2020.2.10,60.00708083356939,
,2,Snore_D.wav,3,NEW,,,,,,,,,0,46,46,46,,,,,,,,,,,,,,,,,,,,,,,,,,,,,,,,,,,,,,,,,,,,,,,,,,,,,,,,,,,,,,,,,,,,,,,,,,,,,,,,,,,,,,,,,,,,,280.01181900000665,None,281.5432739799377,None,281.549312200048,None,281.549312200048,None,284.42732599994633,None,3,1,0.651018499978818,284.42732599994633,None,,001,2021_Feb_22_1132,GuessTheSound,2020.2.10,60.00708083356939,
,1,Test/Lures/Guitar_B.wav,1,OLD,,,,,,,,,0,47,47,47,,,,,,,,,,,,,,,,,,,,,,,,,,,,,,,,,,,,,,,,,,,,,,,,,,,,,,,,,,,,,,,,,,,,,,,,,,,,,,,,,,,,,,,,,,,,,285.0946375000058,None,286.6098482399946,None,286.6178353000432,None,286.6178353000432,None,288.9440661999397,None,1,1,0.22413420001976192,288.9440661999397,None,,001,2021_Feb_22_1132,GuessTheSound,2020.2.10,60.00708083356939,
,2,Initial/Doubled/Cat_A.wav,3,NEW,,,,,,,,,0,48,48,48,,,,,,,,,,,,,,,,,,,,,,,,,,,,,,,,,,,,,,,,,,,,,,,,,,,,,,,,,,,,,,,,,,,,,,,,,,,,,,,,,,,,,,,,,,,,,289.1930892999517,None,290.709682779992,None,290.70693450002,None,290.70693450002,None,292.12741509999614,None,3,1,0.32918170001357794,292.12741509999614,None,,001,2021_Feb_22_1132,GuessTheSound,2020.2.10,60.00708083356939,
,2,Initial/Repeat/Whistle_A.wav,3,NEW,,,,,,,,,0,49,49,49,,,,,,,,,,,,,,,,,,,,,,,,,,,,,,,,,,,,,,,,,,,,,,,,,,,,,,,,,,,,,,,,,,,,,,,,,,,,,,,,,,,,,,,,,,,,,292.47845649998635,None,294.0096278799698,None,294.02064110001083,None,294.02064110001083,None,295.51054549997207,None,3,1,0.39188729994930327,295.51054549997207,None,,001,2021_Feb_22_1132,GuessTheSound,2020.2.10,60.00708083356939,
,2,Duck_B.wav,2,SIMILAR,,,,,,,,,0,50,50,50,,,,,,,,,,,,,,,,,,,,,,,,,,,,,,,,,,,,,,,,,,,,,,,,,,,,,,,,,,,,,,,,,,,,,,,,,,,,,,,,,,,,,,,,,,,,,295.9284523000242,None,297.4598258799175,None,297.45924380002543,None,297.45924380002543,None,299.17734229995403,None,2,1,0.7571704000001773,299.17734229995403,None,,001,2021_Feb_22_1132,GuessTheSound,2020.2.10,60.00708083356939,
,2,Laugh_D.wav,2,SIMILAR,,,,,,,,,0,51,51,51,,,,,,,,,,,,,,,,,,,,,,,,,,,,,,,,,,,,,,,,,,,,,,,,,,,,,,,,,,,,,,,,,,,,,,,,,,,,,,,,,,,,,,,,,,,,,299.9608180000214,None,301.49308167994025,None,301.50321739993524,None,301.50321739993524,None,304.37743110000156,None,2,1,0.5115174999227747,304.37743110000156,None,,001,2021_Feb_22_1132,GuessTheSound,2020.2.10,60.00708083356939,
,1,Initial/Doubled/Chicken_A.wav,1,OLD,,,,,,,,,0,52,52,52,,,,,,,,,,,,,,,,,,,,,,,,,,,,,,,,,,,,,,,,,,,,,,,,,,,,,,,,,,,,,,,,,,,,,,,,,,,,,,,,,,,,,,,,,,,,,304.91086289996747,None,306.42630924000406,None,306.4378618999617,None,306.4378618999617,None,308.12791619997006,None,1,1,1.5779562999960035,308.12791619997006,None,,001,2021_Feb_22_1132,GuessTheSound,2020.2.10,60.00708083356939,
,1,Initial/Repeat/Cello.wav,1,OLD,,,,,,,,,0,53,53,53,,,,,,,,,,,,,,,,,,,,,,,,,,,,,,,,,,,,,,,,,,,,,,,,,,,,,,,,,,,,,,,,,,,,,,,,,,,,,,,,,,,,,,,,,,,,,309.7266393000027,None,311.2428070799448,None,311.24136949994136,None,311.24136949994136,None,314.11030649999157,None,1,1,0.33533749997150153,314.11030649999157,None,,001,2021_Feb_22_1132,GuessTheSound,2020.2.10,60.00708083356939,
,2,Test/Foils/Slurp.wav,3,NEW,,,,,,,,,0,54,54,54,,,,,,,,,,,,,,,,,,,,,,,,,,,,,,,,,,,,,,,,,,,,,,,,,,,,,,,,,,,,,,,,,,,,,,,,,,,,,,,,,,,,,,,,,,,,,314.4799761000322,None,316.0595869999379,None,316.07003579998855,None,316.07003579998855,None,318.44368599995505,None,3,1,0.37080919998697937,318.44368599995505,None,,001,2021_Feb_22_1132,GuessTheSound,2020.2.10,60.00708083356939,
,2,Initial/Doubled/Chomp_A.wav,3,NEW,,,,,,,,,0,55,55,55,,,,,,,,,,,,,,,,,,,,,,,,,,,,,,,,,,,,,,,,,,,,,,,,,,,,,,,,,,,,,,,,,,,,,,,,,,,,,,,,,,,,,,,,,,,,,318.8438289000187,None,320.3596552799223,None,320.3609806000022,None,320.3609806000022,None,323.0437452000333,None,3,1,0.5155404000543058,323.0437452000333,None,,001,2021_Feb_22_1132,GuessTheSound,2020.2.10,60.00708083356939,
,1,Initial/Repeat/Airplane_B.wav,1,OLD,,,,,,,,,0,56,56,56,,,,,,,,,,,,,,,,,,,,,,,,,,,,,,,,,,,,,,,,,,,,,,,,,,,,,,,,,,,,,,,,,,,,,,,,,,,,,,,,,,,,,,,,,,,,,323.5788379999576,None,325.1095323799178,None,325.1038063999731,None,325.1038063999731,None,327.7101176000433,None,3,0,0.563324399990961,327.7101176000433,None,,001,2021_Feb_22_1132,GuessTheSound,2020.2.10,60.00708083356939,
,2,Initial/Repeat/ManWhistle.wav,3,NEW,,,,,,,,,0,57,57,57,,,,,,,,,,,,,,,,,,,,,,,,,,,,,,,,,,,,,,,,,,,,,,,,,,,,,,,,,,,,,,,,,,,,,,,,,,,,,,,,,,,,,,,,,,,,,328.2945353999967,None,329.8261380800046,None,329.83401889994275,None,329.83401889994275,None,332.0600345999701,None,3,1,0.31226679997053,332.0600345999701,None,,001,2021_Feb_22_1132,GuessTheSound,2020.2.10,60.00708083356939,
,1,Initial/Repeat/Trumpet_B.wav,1,OLD,,,,,,,,,0,58,58,58,,,,,,,,,,,,,,,,,,,,,,,,,,,,,,,,,,,,,,,,,,,,,,,,,,,,,,,,,,,,,,,,,,,,,,,,,,,,,,,,,,,,,,,,,,,,,332.3952411999926,None,333.92599767996,None,333.9204993000021,None,333.9204993000021,None,336.22699809994083,None,1,1,0.4105493000242859,336.22699809994083,None,,001,2021_Feb_22_1132,GuessTheSound,2020.2.10,60.00708083356939,
,2,Initial/Repeat/Cup.wav,3,NEW,,,,,,,,,0,59,59,59,,,,,,,,,,,,,,,,,,,,,,,,,,,,,,,,,,,,,,,,,,,,,,,,,,,,,,,,,,,,,,,,,,,,,,,,,,,,,,,,,,,,,,,,,,,,,336.6627795000095,None,338.17559264001903,None,338.17526159994304,None,338.17526159994304,None,339.50990229996387,None,3,1,0.3031066000694409,339.50990229996387,None,,001,2021_Feb_22_1132,GuessTheSound,2020.2.10,60.00708083356939,
,2,Snore_C.wav,2,SIMILAR,,,,,,,,,0,60,60,60,,,,,,,,,,,,,,,,,,,,,,,,,,,,,,,,,,,,,,,,,,,,,,,,,,,,,,,,,,,,,,,,,,,,,,,,,,,,,,,,,,,,,,,,,,,,,339.84228290000465,None,341.3594302799553,None,341.36049460002687,None,341.36049460002687,None,344.22699879994616,None,2,1,0.3896802000235766,344.22699879994616,None,,001,2021_Feb_22_1132,GuessTheSound,2020.2.10,60.00708083356939,
,2,Test/Foils/Airhorn.wav,3,NEW,,,,,,,,,0,61,61,61,,,,,,,,,,,,,,,,,,,,,,,,,,,,,,,,,,,,,,,,,,,,,,,,,,,,,,,,,,,,,,,,,,,,,,,,,,,,,,,,,,,,,,,,,,,,,344.64557039993815,None,346.20922656001056,None,346.2084854999557,None,346.2084854999557,None,348.7599400000181,None,3,1,0.627468999940902,348.7599400000181,None,,001,2021_Feb_22_1132,GuessTheSound,2020.2.10,60.00708083356939,
,2,Whistle_C.wav,2,SIMILAR,,,,,,,,,0,62,62,62,,,,,,,,,,,,,,,,,,,,,,,,,,,,,,,,,,,,,,,,,,,,,,,,,,,,,,,,,,,,,,,,,,,,,,,,,,,,,,,,,,,,,,,,,,,,,349.41061839996837,None,350.9423206799198,None,350.9447087999433,None,350.9447087999433,None,352.74337080004625,None,2,1,0.9864581000292674,352.74337080004625,None,,001,2021_Feb_22_1132,GuessTheSound,2020.2.10,60.00708083356939,
,2,Phone_D.wav,3,NEW,,,,,,,,,0,63,63,63,,,,,,,,,,,,,,,,,,,,,,,,,,,,,,,,,,,,,,,,,,,,,,,,,,,,,,,,,,,,,,,,,,,,,,,,,,,,,,,,,,,,,,,,,,,,,353.7599134000484,None,355.2758539800067,None,355.2842292999849,None,355.2842292999849,None,357.8267507000128,None,3,1,0.5132994001032785,357.8267507000128,None,,001,2021_Feb_22_1132,GuessTheSound,2020.2.10,60.00708083356939,
,1,Initial/Repeat/Sneeze_B.wav,1,OLD,,,,,,,,,0,64,64,64,,,,,,,,,,,,,,,,,,,,,,,,,,,,,,,,,,,,,,,,,,,,,,,,,,,,,,,,,,,,,,,,,,,,,,,,,,,,,,,,,,,,,,,,,,,,,358.3607130999444,None,359.8758248399943,None,359.89444910001475,None,359.89444910001475,None,361.12635449995287,None,1,1,0.8305615000426769,361.12635449995287,None,,001,2021_Feb_22_1132,GuessTheSound,2020.2.10,60.00708083356939,
,1,Initial/Doubled/Cat_A.wav,1,OLD,,,,,,,,,0,65,65,65,,,,,,,,,,,,,,,,,,,,,,,,,,,,,,,,,,,,,,,,,,,,,,,,,,,,,,,,,,,,,,,,,,,,,,,,,,,,,,,,,,,,,,,,,,,,,361.9771594000049,None,363.49105814001524,None,363.4976569999708,None,363.4976569999708,None,364.9251184000168,None,1,1,0.5089793000370264,364.9251184000168,None,,001,2021_Feb_22_1132,GuessTheSound,2020.2.10,60.00708083356939,
,2,Initial/Repeat/Bagpipe.wav,3,NEW,,,,,,,,,0,66,66,66,,,,,,,,,,,,,,,,,,,,,,,,,,,,,,,,,,,,,,,,,,,,,,,,,,,,,,,,,,,,,,,,,,,,,,,,,,,,,,,,,,,,,,,,,,,,,365.457986399997,None,366.9749799799407,None,366.9691920999903,None,366.9691920999903,None,369.34300350002013,None,3,1,0.2969347999896854,369.34300350002013,None,,001,2021_Feb_22_1132,GuessTheSound,2020.2.10,60.00708083356939,
,1,Test/Foils/Slurp.wav,1,OLD,,,,,,,,,0,67,67,67,,,,,,,,,,,,,,,,,,,,,,,,,,,,,,,,,,,,,,,,,,,,,,,,,,,,,,,,,,,,,,,,,,,,,,,,,,,,,,,,,,,,,,,,,,,,,369.66309499996714,None,371.1756900399458,None,371.18609840003774,None,371.18609840003774,None,373.5599063000409,None,1,1,0.3572940999874845,373.5599063000409,None,,001,2021_Feb_22_1132,GuessTheSound,2020.2.10,60.00708083356939,
,2,Test/Foils/Bowlingpins.wav,3,NEW,,,,,,,,,0,68,68,68,,,,,,,,,,,,,,,,,,,,,,,,,,,,,,,,,,,,,,,,,,,,,,,,,,,,,,,,,,,,,,,,,,,,,,,,,,,,,,,,,,,,,,,,,,,,,373.94404229999054,None,375.4917709199712,None,375.48835769994184,None,375.48835769994184,None,377.92644339997787,None,3,1,0.05288249999284744,377.92644339997787,None,,001,2021_Feb_22_1132,GuessTheSound,2020.2.10,60.00708083356939,
,2,Initial/NoRepeat/Cow.wav,3,NEW,,,,,,,,,0,69,69,69,,,,,,,,,,,,,,,,,,,,,,,,,,,,,,,,,,,,,,,,,,,,,,,,,,,,,,,,,,,,,,,,,,,,,,,,,,,,,,,,,,,,,,,,,,,,,378.0088820999954,None,379.525596480025,None,379.52758610004093,None,379.52758610004093,None,381.3595747000072,None,3,1,0.4795496000442654,381.3595747000072,None,,001,2021_Feb_22_1132,GuessTheSound,2020.2.10,60.00708083356939,
,2,Initial/Doubled/Siren_A.wav,3,NEW,,,,,,,,,0,70,70,70,,,,,,,,,,,,,,,,,,,,,,,,,,,,,,,,,,,,,,,,,,,,,,,,,,,,,,,,,,,,,,,,,,,,,,,,,,,,,,,,,,,,,,,,,,,,,381.85900259995833,None,383.3753077800153,None,383.3840344999917,None,383.3840344999917,None,386.17614100000355,None,3,1,0.4779150999384001,386.17614100000355,None,,001,2021_Feb_22_1132,GuessTheSound,2020.2.10,60.00708083356939,
,1,Initial/Repeat/ManWhistle.wav,1,OLD,,,,,,,,,0,71,71,71,,,,,,,,,,,,,,,,,,,,,,,,,,,,,,,,,,,,,,,,,,,,,,,,,,,,,,,,,,,,,,,,,,,,,,,,,,,,,,,,,,,,,,,,,,,,,386.677202599938,None,388.2089079800295,None,388.20360819995403,None,388.20360819995403,None,390.4265022999607,None,3,0,0.36895669996738434,390.4265022999607,None,,001,2021_Feb_22_1132,GuessTheSound,2020.2.10,60.00708083356939,
,2,Initial/Repeat/Crow_B.wav,3,NEW,,,,,,,,,0,72,72,72,,,,,,,,,,,,,,,,,,,,,,,,,,,,,,,,,,,,,,,,,,,,,,,,,,,,,,,,,,,,,,,,,,,,,,,,,,,,,,,,,,,,,,,,,,,,,390.8253679999616,None,392.34201267992614,None,392.34736479993444,None,392.34736479993444,None,394.42634769994766,None,3,1,0.7286325000459328,394.42634769994766,None,,001,2021_Feb_22_1132,GuessTheSound,2020.2.10,60.00708083356939,
,2,Chomp_E.wav,2,SIMILAR,,,,,,,,,0,73,73,73,,,,,,,,,,,,,,,,,,,,,,,,,,,,,,,,,,,,,,,,,,,,,,,,,,,,,,,,,,,,,,,,,,,,,,,,,,,,,,,,,,,,,,,,,,,,,395.17593869997654,None,396.6918164799223,None,396.6978624999756,None,396.6978624999756,None,398.9092713999562,None,3,0,1.0171433999203146,398.9092713999562,None,,001,2021_Feb_22_1132,GuessTheSound,2020.2.10,60.00708083356939,
,1,Initial/Repeat/Cup.wav,1,OLD,,,,,,,,,0,74,74,74,,,,,,,,,,,,,,,,,,,,,,,,,,,,,,,,,,,,,,,,,,,,,,,,,,,,,,,,,,,,,,,,,,,,,,,,,,,,,,,,,,,,,,,,,,,,,399.9443406999344,None,401.4584209399298,None,401.46788989997003,None,401.46788989997003,None,402.79263769998215,None,1,1,1.1839275000384077,402.79263769998215,None,,001,2021_Feb_22_1132,GuessTheSound,2020.2.10,60.00708083356939,
,2,Test/Foils/Bullfrog.wav,3,NEW,,,,,,,,,0,75,75,75,,,,,,,,,,,,,,,,,,,,,,,,,,,,,,,,,,,,,,,,,,,,,,,,,,,,,,,,,,,,,,,,,,,,,,,,,,,,,,,,,,,,,,,,,,,,,403.9951495999703,None,405.55837535990867,None,405.5558473999845,None,405.5558473999845,None,408.4260464999825,None,3,1,0.41391120001208037,408.4260464999825,None,,001,2021_Feb_22_1132,GuessTheSound,2020.2.10,60.00708083356939,
,2,Initial/Repeat/Phone_A.wav,2,SIMILAR,,,,,,,,,0,76,76,76,,,,,,,,,,,,,,,,,,,,,,,,,,,,,,,,,,,,,,,,,,,,,,,,,,,,,,,,,,,,,,,,,,,,,,,,,,,,,,,,,,,,,,,,,,,,,408.8605571000371,None,410.39170857998545,None,410.39805710001383,None,410.39805710001383,None,413.2761401999742,None,2,1,0.27210249996278435,413.2761401999742,None,,001,2021_Feb_22_1132,GuessTheSound,2020.2.10,60.00708083356939,
,1,Initial/Repeat/Bagpipe.wav,1,OLD,,,,,,,,,0,77,77,77,,,,,,,,,,,,,,,,,,,,,,,,,,,,,,,,,,,,,,,,,,,,,,,,,,,,,,,,,,,,,,,,,,,,,,,,,,,,,,,,,,,,,,,,,,,,,413.57494770002086,None,415.09176328000615,None,415.08982370002195,None,415.08982370002195,None,417.4591520000249,None,1,1,0.45603380003012717,417.4591520000249,None,,001,2021_Feb_22_1132,GuessTheSound,2020.2.10,60.00708083356939,
,2,Initial/Doubled/HairDryer_A.wav,3,NEW,,,,,,,,,0,78,78,78,,,,,,,,,,,,,,,,,,,,,,,,,,,,,,,,,,,,,,,,,,,,,,,,,,,,,,,,,,,,,,,,,,,,,,,,,,,,,,,,,,,,,,,,,,,,,417.9426592999371,None,419.4748936799821,None,419.4777439000318,None,419.4777439000318,None,422.059421599959,None,3,1,0.3363039999967441,422.059421599959,None,,001,2021_Feb_22_1132,GuessTheSound,2020.2.10,60.00708083356939,
,1,Test/Foils/Airhorn.wav,1,OLD,,,,,,,,,0,79,79,79,,,,,,,,,,,,,,,,,,,,,,,,,,,,,,,,,,,,,,,,,,,,,,,,,,,,,,,,,,,,,,,,,,,,,,,,,,,,,,,,,,,,,,,,,,,,,422.42510039999615,None,423.94181228000673,None,423.9375010000076,None,423.9375010000076,None,426.49241820001043,None,3,0,0.24561500002164394,426.49241820001043,None,,001,2021_Feb_22_1132,GuessTheSound,2020.2.10,60.00708083356939,
,2,Initial/NoRepeat/Hammer_A.wav,3,NEW,,,,,,,,,0,80,80,80,,,,,,,,,,,,,,,,,,,,,,,,,,,,,,,,,,,,,,,,,,,,,,,,,,,,,,,,,,,,,,,,,,,,,,,,,,,,,,,,,,,,,,,,,,,,,426.75919839995913,None,428.2750600800151,None,428.2862922999775,None,428.2862922999775,None,430.7593094999902,None,3,1,0.4849189999513328,430.7593094999902,None,,001,2021_Feb_22_1132,GuessTheSound,2020.2.10,60.00708083356939,
,2,Initial/Doubled/Cuckoo_A.wav,3,NEW,,,,,,,,,0,81,81,81,,,,,,,,,,,,,,,,,,,,,,,,,,,,,,,,,,,,,,,,,,,,,,,,,,,,,,,,,,,,,,,,,,,,,,,,,,,,,,,,,,,,,,,,,,,,,431.27486170001794,None,432.7916446799878,None,432.79844139993656,None,432.79844139993656,None,435.2922462000279,None,3,1,0.31598970002960414,435.2922462000279,None,,001,2021_Feb_22_1132,GuessTheSound,2020.2.10,60.00708083356939,
,1,Initial/NoRepeat/Cow.wav,1,OLD,,,,,,,,,0,82,82,82,,,,,,,,,,,,,,,,,,,,,,,,,,,,,,,,,,,,,,,,,,,,,,,,,,,,,,,,,,,,,,,,,,,,,,,,,,,,,,,,,,,,,,,,,,,,,435.62592280004174,None,437.1418551799376,None,437.1394717999501,None,437.1394717999501,None,438.975467100041,None,1,1,0.4408359000226483,438.975467100041,None,,001,2021_Feb_22_1132,GuessTheSound,2020.2.10,60.00708083356939,
,2,Initial/NoRepeat/Footsteps_B.wav,3,NEW,,,,,,,,,0,83,83,83,,,,,,,,,,,,,,,,,,,,,,,,,,,,,,,,,,,,,,,,,,,,,,,,,,,,,,,,,,,,,,,,,,,,,,,,,,,,,,,,,,,,,,,,,,,,,439.4413393000141,None,440.9580411799485,None,440.96868339995854,None,440.96868339995854,None,443.62568079994526,None,3,1,0.7136680000694469,443.62568079994526,None,,001,2021_Feb_22_1132,GuessTheSound,2020.2.10,60.00708083356939,
,2,Dog_E.wav,3,NEW,,,,,,,,,0,84,84,84,,,,,,,,,,,,,,,,,,,,,,,,,,,,,,,,,,,,,,,,,,,,,,,,,,,,,,,,,,,,,,,,,,,,,,,,,,,,,,,,,,,,,,,,,,,,,444.358448300045,None,445.8746128799627,None,445.87847889994737,None,445.87847889994737,None,447.6256276000058,None,3,1,0.8586262000026181,447.6256276000058,None,,001,2021_Feb_22_1132,GuessTheSound,2020.2.10,60.00708083356939,
,1,Test/Foils/Bowlingpins.wav,1,OLD,,,,,,,,,0,85,85,85,,,,,,,,,,,,,,,,,,,,,,,,,,,,,,,,,,,,,,,,,,,,,,,,,,,,,,,,,,,,,,,,,,,,,,,,,,,,,,,,,,,,,,,,,,,,,448.50880089995917,None,450.00781243999955,None,450.0187871999806,None,450.0187871999806,None,452.45911179995164,None,3,0,0.8369297999888659,452.45911179995164,None,,001,2021_Feb_22_1132,GuessTheSound,2020.2.10,60.00708083356939,
,2,Piano_D.wav,3,NEW,,,,,,,,,0,86,86,86,,,,,,,,,,,,,,,,,,,,,,,,,,,,,,,,,,,,,,,,,,,,,,,,,,,,,,,,,,,,,,,,,,,,,,,,,,,,,,,,,,,,,,,,,,,,,453.3266830999637,None,454.8581678800052,None,454.8646245000418,None,454.8646245000418,None,457.7421711999923,None,3,1,0.4064408999402076,457.7421711999923,None,,001,2021_Feb_22_1132,GuessTheSound,2020.2.10,60.00708083356939,
,2,Initial/NoRepeat/Fireworks.wav,3,NEW,,,,,,,,,0,87,87,87,,,,,,,,,,,,,,,,,,,,,,,,,,,,,,,,,,,,,,,,,,,,,,,,,,,,,,,,,,,,,,,,,,,,,,,,,,,,,,,,,,,,,,,,,,,,,458.1745376000181,None,459.69177387994716,None,459.69545470003504,None,459.69545470003504,None,462.55889480002224,None,3,1,0.37757740006782115,462.55889480002224,None,,001,2021_Feb_22_1132,GuessTheSound,2020.2.10,60.00708083356939,
,1,Test/Foils/Bullfrog.wav,1,OLD,,,,,,,,,0,88,88,88,,,,,,,,,,,,,,,,,,,,,,,,,,,,,,,,,,,,,,,,,,,,,,,,,,,,,,,,,,,,,,,,,,,,,,,,,,,,,,,,,,,,,,,,,,,,,462.95953660004307,None,464.49153987995817,None,464.4941852999618,None,464.4941852999618,None,467.3585988000268,None,1,1,0.3703270999249071,467.3585988000268,None,,001,2021_Feb_22_1132,GuessTheSound,2020.2.10,60.00708083356939,
,2,Siren_B.wav,2,SIMILAR,,,,,,,,,0,89,89,89,,,,,,,,,,,,,,,,,,,,,,,,,,,,,,,,,,,,,,,,,,,,,,,,,,,,,,,,,,,,,,,,,,,,,,,,,,,,,,,,,,,,,,,,,,,,,467.75777329993434,None,469.2910489199916,None,469.28905799996573,None,469.28905799996573,None,472.15865530003794,None,2,1,0.7298760999692604,472.15865530003794,None,,001,2021_Feb_22_1132,GuessTheSound,2020.2.10,60.00708083356939,
,2,Crow_A.wav,2,SIMILAR,,,,,,,,,0,90,90,90,,,,,,,,,,,,,,,,,,,,,,,,,,,,,,,,,,,,,,,,,,,,,,,,,,,,,,,,,,,,,,,,,,,,,,,,,,,,,,,,,,,,,,,,,,,,,472.9084791999776,None,474.4411366199842,None,474.4502597999526,None,474.4502597999526,None,476.2919571000384,None,2,1,0.8624305999837816,476.2919571000384,None,,001,2021_Feb_22_1132,GuessTheSound,2020.2.10,60.00708083356939,
,2,Goat_D.wav,3,NEW,,,,,,,,,0,91,91,91,,,,,,,,,,,,,,,,,,,,,,,,,,,,,,,,,,,,,,,,,,,,,,,,,,,,,,,,,,,,,,,,,,,,,,,,,,,,,,,,,,,,,,,,,,,,,477.17535090004094,None,478.69114743995016,None,478.7013580999337,None,478.7013580999337,None,480.42523940000683,None,3,1,0.7751673000166193,480.42523940000683,None,,001,2021_Feb_22_1132,GuessTheSound,2020.2.10,60.00708083356939,
,1,Initial/Doubled/HairDryer_A.wav,1,OLD,,,,,,,,,0,92,92,92,,,,,,,,,,,,,,,,,,,,,,,,,,,,,,,,,,,,,,,,,,,,,,,,,,,,,,,,,,,,,,,,,,,,,,,,,,,,,,,,,,,,,,,,,,,,,481.2249315000372,None,482.74097387995573,None,482.7391562999692,None,482.7391562999692,None,485.3087805999676,None,3,0,0.21584200009237975,485.3087805999676,None,,001,2021_Feb_22_1132,GuessTheSound,2020.2.10,60.00708083356939,
,1,Initial/Doubled/Cuckoo_A.wav,1,OLD,,,,,,,,,0,93,93,93,,,,,,,,,,,,,,,,,,,,,,,,,,,,,,,,,,,,,,,,,,,,,,,,,,,,,,,,,,,,,,,,,,,,,,,,,,,,,,,,,,,,,,,,,,,,,485.54409899993334,None,487.0576241400093,None,487.06762939994223,None,487.06762939994223,None,489.55873149994295,None,3,0,0.15866210008971393,489.55873149994295,None,,001,2021_Feb_22_1132,GuessTheSound,2020.2.10,60.00708083356939,
,2,Coin_C.wav,3,NEW,,,,,,,,,0,94,94,94,,,,,,,,,,,,,,,,,,,,,,,,,,,,,,,,,,,,,,,,,,,,,,,,,,,,,,,,,,,,,,,,,,,,,,,,,,,,,,,,,,,,,,,,,,,,,489.7425758000463,None,491.2742282799678,None,491.2757643000223,None,491.2757643000223,None,492.5917658000253,None,3,1,0.9631348999682814,492.5917658000253,None,,001,2021_Feb_22_1132,GuessTheSound,2020.2.10,60.00708083356939,
,2,Initial/Repeat/Howl.wav,3,NEW,,,,,,,,,0,95,95,95,,,,,,,,,,,,,,,,,,,,,,,,,,,,,,,,,,,,,,,,,,,,,,,,,,,,,,,,,,,,,,,,,,,,,,,,,,,,,,,,,,,,,,,,,,,,,493.5755847999826,None,495.1078401799547,None,495.10863899998367,None,495.10863899998367,None,497.8584307000274,None,3,1,0.5050339000299573,497.8584307000274,None,,001,2021_Feb_22_1132,GuessTheSound,2020.2.10,60.00708083356939,
,1,Initial/NoRepeat/Hammer_A.wav,1,OLD,,,,,,,,,0,96,96,96,,,,,,,,,,,,,,,,,,,,,,,,,,,,,,,,,,,,,,,,,,,,,,,,,,,,,,,,,,,,,,,,,,,,,,,,,,,,,,,,,,,,,,,,,,,,,498.3907487000106,None,499.90761017999614,None,499.90417869994417,None,499.90417869994417,None,502.3751908999402,None,3,0,0.45100230001844466,502.3751908999402,None,,001,2021_Feb_22_1132,GuessTheSound,2020.2.10,60.00708083356939,
,2,Initial/NoRepeat/Helicopter_A.wav,3,NEW,,,,,,,,,0,97,97,97,,,,,,,,,,,,,,,,,,,,,,,,,,,,,,,,,,,,,,,,,,,,,,,,,,,,,,,,,,,,,,,,,,,,,,,,,,,,,,,,,,,,,,,,,,,,,502.84727909998037,None,504.37399697992953,None,504.3791201999411,None,504.3791201999411,None,506.84155589994043,None,3,1,0.39659180003218353,506.84155589994043,None,,001,2021_Feb_22_1132,GuessTheSound,2020.2.10,60.00708083356939,
,2,Initial/Doubled/Bubbles_A.wav,3,NEW,,,,,,,,,0,98,98,98,,,,,,,,,,,,,,,,,,,,,,,,,,,,,,,,,,,,,,,,,,,,,,,,,,,,,,,,,,,,,,,,,,,,,,,,,,,,,,,,,,,,,,,,,,,,,507.2594299999764,None,508.7908799799858,None,508.79608060000464,None,508.79608060000464,None,511.2085675999988,None,3,1,0.5906114999670535,511.2085675999988,None,,001,2021_Feb_22_1132,GuessTheSound,2020.2.10,60.00708083356939,
,2,Footsteps_C.wav,2,SIMILAR,,,,,,,,,0,99,99,99,,,,,,,,,,,,,,,,,,,,,,,,,,,,,,,,,,,,,,,,,,,,,,,,,,,,,,,,,,,,,,,,,,,,,,,,,,,,,,,,,,,,,,,,,,,,,511.8255887000123,None,513.3574779799906,None,513.3680616000202,None,513.3680616000202,None,516.1415523999603,None,2,1,0.6509661000454798,516.1415523999603,None,,001,2021_Feb_22_1132,GuessTheSound,2020.2.10,60.00708083356939,
,2,Growl_E.wav,3,NEW,,,,,,,,,0,100,100,100,,,,,,,,,,,,,,,,,,,,,,,,,,,,,,,,,,,,,,,,,,,,,,,,,,,,,,,,,,,,,,,,,,,,,,,,,,,,,,,,,,,,,,,,,,,,,516.8084895999637,None,518.3406165800056,None,518.3461559000425,None,518.3461559000425,None,520.9414770000149,None,3,1,0.46908369997981936,520.9414770000149,None,,001,2021_Feb_22_1132,GuessTheSound,2020.2.10,60.00708083356939,
,2,Test/Foils/Horse.wav,3,NEW,,,,,,,,,0,101,101,101,,,,,,,,,,,,,,,,,,,,,,,,,,,,,,,,,,,,,,,,,,,,,,,,,,,,,,,,,,,,,,,,,,,,,,,,,,,,,,,,,,,,,,,,,,,,,521.4416850999696,None,522.9907072599045,None,522.9933665000135,None,522.9933665000135,None,525.1914945000317,None,3,1,0.309990799985826,525.1914945000317,None,,001,2021_Feb_22_1132,GuessTheSound,2020.2.10,60.00708083356939,
,1,Piano_D.wav,1,OLD,,,,,,,,,0,102,102,102,,,,,,,,,,,,,,,,,,,,,,,,,,,,,,,,,,,,,,,,,,,,,,,,,,,,,,,,,,,,,,,,,,,,,,,,,,,,,,,,,,,,,,,,,,,,,525.5248257999774,None,527.0573522799182,None,527.062145999982,None,527.062145999982,None,529.9249506000197,None,1,1,0.5711349999764934,529.9249506000197,None,,001,2021_Feb_22_1132,GuessTheSound,2020.2.10,60.00708083356939,
,2,Dog_F.wav,2,SIMILAR,,,,,,,,,0,103,103,103,,,,,,,,,,,,,,,,,,,,,,,,,,,,,,,,,,,,,,,,,,,,,,,,,,,,,,,,,,,,,,,,,,,,,,,,,,,,,,,,,,,,,,,,,,,,,530.5237820999464,None,532.0404065799898,None,532.0461505999556,None,532.0461505999556,None,533.724756999989,None,2,1,0.9751534999813884,533.724756999989,None,,001,2021_Feb_22_1132,GuessTheSound,2020.2.10,60.00708083356939,
,1,Initial/NoRepeat/Fireworks.wav,1,OLD,,,,,,,,,0,104,104,104,,,,,,,,,,,,,,,,,,,,,,,,,,,,,,,,,,,,,,,,,,,,,,,,,,,,,,,,,,,,,,,,,,,,,,,,,,,,,,,,,,,,,,,,,,,,,534.7259412000421,None,536.2572531799319,None,536.252497700043,None,536.252497700043,None,539.1249679999892,None,1,1,0.5144465999910608,539.1249679999892,None,,001,2021_Feb_22_1132,GuessTheSound,2020.2.10,60.00708083356939,
,2,Initial/Repeat/Printer.wav,3,NEW,,,,,,,,,0,105,105,105,,,,,,,,,,,,,,,,,,,,,,,,,,,,,,,,,,,,,,,,,,,,,,,,,,,,,,,,,,,,,,,,,,,,,,,,,,,,,,,,,,,,,,,,,,,,,539.6595222000033,None,541.1903851799666,None,541.1974956999766,None,541.1974956999766,None,543.9580841000425,None,3,1,0.36309509992133826,543.9580841000425,None,,001,2021_Feb_22_1132,GuessTheSound,2020.2.10,60.00708083356939,
,2,Test/Foils/Camera.wav,3,NEW,,,,,,,,,0,106,106,106,,,,,,,,,,,,,,,,,,,,,,,,,,,,,,,,,,,,,,,,,,,,,,,,,,,,,,,,,,,,,,,,,,,,,,,,,,,,,,,,,,,,,,,,,,,,,544.3428453999804,None,545.8902832199586,None,545.8985643000342,None,545.8985643000342,None,546.8746932999929,None,3,1,0.5432609999552369,546.8746932999929,None,,001,2021_Feb_22_1132,GuessTheSound,2020.2.10,60.00708083356939,
,2,Clap_B.wav,3,NEW,,,,,,,,,0,107,107,107,,,,,,,,,,,,,,,,,,,,,,,,,,,,,,,,,,,,,,,,,,,,,,,,,,,,,,,,,,,,,,,,,,,,,,,,,,,,,,,,,,,,,,,,,,,,,547.4402422000421,None,548.9571298799942,None,548.965458599967,None,548.965458599967,None,551.6244403000455,None,3,1,0.45909289992414415,551.6244403000455,None,,001,2021_Feb_22_1132,GuessTheSound,2020.2.10,60.00708083356939,
,2,Initial/Repeat/PaperRip.wav,3,NEW,,,,,,,,,0,108,108,108,,,,,,,,,,,,,,,,,,,,,,,,,,,,,,,,,,,,,,,,,,,,,,,,,,,,,,,,,,,,,,,,,,,,,,,,,,,,,,,,,,,,,,,,,,,,,552.1091197000351,None,553.6407209800323,None,553.6437556999736,None,553.6437556999736,None,555.2409330999944,None,3,1,0.3631677000084892,555.2409330999944,None,,001,2021_Feb_22_1132,GuessTheSound,2020.2.10,60.00708083356939,
,2,Coin_B.wav,2,SIMILAR,,,,,,,,,0,109,109,109,,,,,,,,,,,,,,,,,,,,,,,,,,,,,,,,,,,,,,,,,,,,,,,,,,,,,,,,,,,,,,,,,,,,,,,,,,,,,,,,,,,,,,,,,,,,,555.623700199998,None,557.1405581799568,None,557.1423238000134,None,557.1423238000134,None,558.5079873999348,None,2,1,0.9749039999442175,558.5079873999348,None,,001,2021_Feb_22_1132,GuessTheSound,2020.2.10,60.00708083356939,
,2,Initial/NoRepeat/Droplet_B.wav,3,NEW,,,,,,,,,0,110,110,110,,,,,,,,,,,,,,,,,,,,,,,,,,,,,,,,,,,,,,,,,,,,,,,,,,,,,,,,,,,,,,,,,,,,,,,,,,,,,,,,,,,,,,,,,,,,,559.5086559000192,None,561.0404782799537,None,561.049905300024,None,561.049905300024,None,563.2081728000194,None,3,1,0.7981758000096306,563.2081728000194,None,,001,2021_Feb_22_1132,GuessTheSound,2020.2.10,60.00708083356939,
,2,Test/Foils/Steam.wav,3,NEW,,,,,,,,,0,111,111,111,,,,,,,,,,,,,,,,,,,,,,,,,,,,,,,,,,,,,,,,,,,,,,,,,,,,,,,,,,,,,,,,,,,,,,,,,,,,,,,,,,,,,,,,,,,,,564.0233174000168,None,565.5904653999023,None,565.6006999999518,None,565.6006999999518,None,568.1243834999623,None,3,1,0.8766400000313297,568.1243834999623,None,,001,2021_Feb_22_1132,GuessTheSound,2020.2.10,60.00708083356939,
,1,Initial/NoRepeat/Helicopter_A.wav,1,OLD,,,,,,,,,0,112,112,112,,,,,,,,,,,,,,,,,,,,,,,,,,,,,,,,,,,,,,,,,,,,,,,,,,,,,,,,,,,,,,,,,,,,,,,,,,,,,,,,,,,,,,,,,,,,,569.025166700012,None,570.557142679952,None,570.5531951000448,None,570.5531951000448,None,573.00750409998,None,1,1,0.8615421999711543,573.00750409998,None,,001,2021_Feb_22_1132,GuessTheSound,2020.2.10,60.00708083356939,
,2,Initial/Doubled/CarStart_A.wav,3,NEW,,,,,,,,,0,113,113,113,,,,,,,,,,,,,,,,,,,,,,,,,,,,,,,,,,,,,,,,,,,,,,,,,,,,,,,,,,,,,,,,,,,,,,,,,,,,,,,,,,,,,,,,,,,,,573.8906701999949,None,575.4067932799458,None,575.4158424000489,None,575.4158424000489,None,577.9241647999734,None,3,1,0.4595907999901101,577.9241647999734,None,,001,2021_Feb_22_1132,GuessTheSound,2020.2.10,60.00708083356939,
,1,Initial/Repeat/Howl.wav,1,OLD,,,,,,,,,0,114,114,114,,,,,,,,,,,,,,,,,,,,,,,,,,,,,,,,,,,,,,,,,,,,,,,,,,,,,,,,,,,,,,,,,,,,,,,,,,,,,,,,,,,,,,,,,,,,,578.407511999947,None,579.9231772800208,None,579.9197078000288,None,579.9197078000288,None,582.6743421000428,None,1,1,0.3245099000632763,582.6743421000428,None,,001,2021_Feb_22_1132,GuessTheSound,2020.2.10,60.00708083356939,
,2,Growl_F.wav,2,SIMILAR,,,,,,,,,0,115,115,115,,,,,,,,,,,,,,,,,,,,,,,,,,,,,,,,,,,,,,,,,,,,,,,,,,,,,,,,,,,,,,,,,,,,,,,,,,,,,,,,,,,,,,,,,,,,,583.0251775999786,None,584.5565946799702,None,584.5628797999816,None,584.5628797999816,None,587.157464100048,None,1,0,0.5708280999679118,587.157464100048,None,,001,2021_Feb_22_1132,GuessTheSound,2020.2.10,60.00708083356939,
,2,Goat_C.wav,2,SIMILAR,,,,,,,,,0,116,116,116,,,,,,,,,,,,,,,,,,,,,,,,,,,,,,,,,,,,,,,,,,,,,,,,,,,,,,,,,,,,,,,,,,,,,,,,,,,,,,,,,,,,,,,,,,,,,587.7572378000477,None,589.256414139946,None,589.2687727999873,None,589.2687727999873,None,591.0906719999621,None,1,0,0.6268181999912485,591.0906719999621,None,,001,2021_Feb_22_1132,GuessTheSound,2020.2.10,60.00708083356939,
,2,Test/Foils/Donkey.wav,3,NEW,,,,,,,,,0,117,117,117,,,,,,,,,,,,,,,,,,,,,,,,,,,,,,,,,,,,,,,,,,,,,,,,,,,,,,,,,,,,,,,,,,,,,,,,,,,,,,,,,,,,,,,,,,,,,591.7431032999884,None,593.2897104199277,None,593.2973978000227,None,593.2973978000227,None,596.0074034000281,None,1,0,0.3213475999655202,596.0074034000281,None,,001,2021_Feb_22_1132,GuessTheSound,2020.2.10,60.00708083356939,
,1,Initial/Repeat/PaperRip.wav,1,OLD,,,,,,,,,0,118,118,118,,,,,,,,,,,,,,,,,,,,,,,,,,,,,,,,,,,,,,,,,,,,,,,,,,,,,,,,,,,,,,,,,,,,,,,,,,,,,,,,,,,,,,,,,,,,,596.3564535999903,None,597.8730484799248,None,597.8696093000472,None,597.8696093000472,None,599.4742872000206,None,1,1,0.41858709999360144,599.4742872000206,None,,001,2021_Feb_22_1132,GuessTheSound,2020.2.10,60.00708083356939,
,2,Test/Lures/Bubbles_B.wav,2,SIMILAR,,,,,,,,,0,119,119,119,,,,,,,,,,,,,,,,,,,,,,,,,,,,,,,,,,,,,,,,,,,,,,,,,,,,,,,,,,,,,,,,,,,,,,,,,,,,,,,,,,,,,,,,,,,,,599.923027300043,None,601.4736043599434,None,601.4702224000357,None,601.4702224000357,None,603.9072545999661,None,1,0,0.4572632999625057,603.9072545999661,None,,001,2021_Feb_22_1132,GuessTheSound,2020.2.10,60.00708083356939,
,1,Test/Foils/Horse.wav,1,OLD,,,,,,,,,0,120,120,120,,,,,,,,,,,,,,,,,,,,,,,,,,,,,,,,,,,,,,,,,,,,,,,,,,,,,,,,,,,,,,,,,,,,,,,,,,,,,,,,,,,,,,,,,,,,,604.3883006999968,None,605.9050827799597,None,605.9088715999387,None,605.9088715999387,None,608.1064319999423,None,1,1,0.28307370003312826,608.1064319999423,None,,001,2021_Feb_22_1132,GuessTheSound,2020.2.10,60.00708083356939,
,1,Initial/Repeat/Printer.wav,1,OLD,,,,,,,,,0,121,121,121,,,,,,,,,,,,,,,,,,,,,,,,,,,,,,,,,,,,,,,,,,,,,,,,,,,,,,,,,,,,,,,,,,,,,,,,,,,,,,,,,,,,,,,,,,,,,608.405526699964,None,609.9227276799734,None,609.9206851000199,None,609.9206851000199,None,612.6906033999985,None,1,1,0.2152953000040725,612.6906033999985,None,,001,2021_Feb_22_1132,GuessTheSound,2020.2.10,60.00708083356939,
,1,Test/Foils/Camera.wav,1,OLD,,,,,,,,,0,122,122,122,,,,,,,,,,,,,,,,,,,,,,,,,,,,,,,,,,,,,,,,,,,,,,,,,,,,,,,,,,,,,,,,,,,,,,,,,,,,,,,,,,,,,,,,,,,,,612.9271685000276,None,614.4398572400212,None,614.450023900019,None,614.450023900019,None,615.4240178000182,None,1,1,0.8691295000026003,615.4240178000182,None,,001,2021_Feb_22_1132,GuessTheSound,2020.2.10,60.00708083356939,
,1,Initial/NoRepeat/Droplet_B.wav,1,OLD,,,,,,,,,0,123,123,123,,,,,,,,,,,,,,,,,,,,,,,,,,,,,,,,,,,,,,,,,,,,,,,,,,,,,,,,,,,,,,,,,,,,,,,,,,,,,,,,,,,,,,,,,,,,,616.3236952000298,None,617.8394954799674,None,617.8398657999933,None,617.8398657999933,None,619.9904581999872,None,1,1,0.4693484000163153,619.9904581999872,None,,001,2021_Feb_22_1132,GuessTheSound,2020.2.10,60.00708083356939,
,1,Test/Foils/Steam.wav,1,OLD,,,,,,,,,0,124,124,124,,,,,,,,,,,,,,,,,,,,,,,,,,,,,,,,,,,,,,,,,,,,,,,,,,,,,,,,,,,,,,,,,,,,,,,,,,,,,,,,,,,,,,,,,,,,,620.4916961999843,None,622.0230401800013,None,622.0181616999907,None,622.0181616999907,None,624.5401388000464,None,1,1,0.37727960001211613,624.5401388000464,None,,001,2021_Feb_22_1132,GuessTheSound,2020.2.10,60.00708083356939,
,2,CarStart_E.wav,2,SIMILAR,,,,,,,,,0,125,125,125,,,,,,,,,,,,,,,,,,,,,,,,,,,,,,,,,,,,,,,,,,,,,,,,,,,,,,,,,,,,,,,,,,,,,,,,,,,,,,,,,,,,,,,,,,,,,624.9408614999847,None,626.4728054800303,None,626.4815712999552,None,626.4815712999552,None,628.9737048000097,None,2,1,1.33712459995877,628.9737048000097,None,,001,2021_Feb_22_1132,GuessTheSound,2020.2.10,60.00708083356939,
,1,Test/Foils/Donkey.wav,1,OLD,,,,,,,,,0,126,126,126,,,,,,,,,,,,,,,,,,,,,,,,,,,,,,,,,,,,,,,,,,,,,,,,,,,,,,,,,,,,,,,,,,,,,,,,,,,,,,,,,,,,,,,,,,,,,630.3397064999444,None,631.8563644800101,None,631.854472200037,None,631.854472200037,None,634.5734559999546,None,1,1,0.2475795999635011,634.5734559999546,None,,001,2021_Feb_22_1132,GuessTheSound,2020.2.10,60.00708083356939,
,2,Clap_C.wav,2,SIMILAR,,,,,,,,,0,127,127,127,,,,,,,,,,,,,,,,,,,,,,,,,,,,,,,,,,,,,,,,,,,,,,,,,,,,,,,,,,,,,,,,,,,,,,,,,,,,,,,,,,,,,,,,,,,,,634.8418062999845,None,636.3729572799289,None,636.3807261999464,None,636.3807261999464,None,639.0067868999904,None,2,1,1.3680663999402896,639.0067868999904,None,,001,2021_Feb_22_1132,GuessTheSound,2020.2.10,60.00708083356939,
