SoundFile,Correct,Correct2,Type,Trial,PracticeLoop.thisRepN,PracticeLoop.thisTrialN,PracticeLoop.thisN,PracticeLoop.thisIndex,trials.thisRepN,trials.thisTrialN,trials.thisN,trials.thisIndex,InstructionTxt.started,InstructionTxt.stopped,WelcomContinue.started,WelcomContinue.stopped,VolumeBeginTxt.started,VolumeBeginTxt.stopped,VolumeContinueKey.keys,VolumeContinueKey.rt,VolumeContinueKey.started,VolumeContinueKey.stopped,text.started,text.stopped,Music.started,Music.stopped,AdjustContinue.started,AdjustContinue.stopped,HeadphoneCheckBeing.started,HeadphoneCheckBeing.stopped,HeadphoneContinue.started,HeadphoneContinue.stopped,HeadphoneContinueKey.keys,HeadphoneContinueKey.rt,HeadphoneContinueKey.started,HeadphoneContinueKey.stopped,WelcomeTxt1.started,WelcomeTxt1.stopped,ContinueKey1.started,ContinueKey1.stopped,ContinueResp.keys,ContinueResp.rt,ContinueResp.started,ContinueResp.stopped,Welcome2Txt.started,Welcome2Txt.stopped,Wel2ContinueKey.keys,Wel2ContinueKey.rt,Wel2ContinueKey.started,Wel2ContinueKey.stopped,Continue2.started,Continue2.stopped,InstructionTxt2.started,InstructionTxt2.stopped,WelcomeContinue2.started,WelcomeContinue2.stopped,WelcomeContinueKey2.keys,WelcomeContinueKey2.rt,WelcomeContinueKey2.started,WelcomeContinueKey2.stopped,TrialNumber.started,TrialNumber.stopped,PracticeSound.started,PracticeSound.stopped,PracticeCross.started,PracticeCross.stopped,Practice_resp.keys,Practice_resp.corr,Practice_resp.rt,Practice_resp.started,Practice_resp.stopped,PracticeMssg.started,PracticeMssg.stopped,FeedbackCross.started,FeedbackCross.stopped,Continue.started,Continue.stopped,Options.started,Options.stopped,FeedbackMssg.started,FeedbackMssg.stopped,StartTxt.started,StartTxt.stopped,StartTast.keys,StartTast.rt,StartTast.started,StartTast.stopped,ContinueStart.started,ContinueStart.stopped,no_3.started,no_3.stopped,TargetSound.started,TargetSound.stopped,Cross.started,Cross.stopped,ItemNumber.started,ItemNumber.stopped,MSTQuestion.started,MSTQuestion.stopped,MSTResp.keys,MSTResp.corr,MSTResp.rt,MSTResp.started,MSTResp.stopped,participant,session,date,expName,psychopyVersion,frameRate,
,,,,,,,,,,,,,27.903687899932265,None,27.903687899932265,None,30.93185260007158,None,space,0.5727036001626402,30.93185260007158,None,,,,,,,,,,,,,,,,,,,,,,,,,,,,,,,,,,,,,,,,,,,,,,,,,,,,,,,,,,,,,,,,,,,,,,,,,,,,,,,,,,,,001,2021_Mar_02_1856,GuessTheSound,2020.2.10,60.07658565504703,
,,,,,,,,,,,,,,,,,,,,,,,31.576472900109366,None,31.56492611006834,None,31.576472900109366,None,31.935979299945757,None,31.935979299945757,None,space,0.3751441000495106,31.935979299945757,None,,,,,,,,,,,,,,,,,,,,,,,,,,,,,,,,,,,,,,,,,,,,,,,,,,,,,,,,,,,,,,,,,,,,,,001,2021_Mar_02_1856,GuessTheSound,2020.2.10,60.07658565504703,
,,,,,,,,,,,,,,,,,,,,,,,,,,,,,,,,,,,,,32.339177099987864,None,32.339177099987864,None,space,0.3716441998258233,32.339177099987864,None,,,,,,,,,,,,,,,,,,,,,,,,,,,,,,,,,,,,,,,,,,,,,,,,,,,,,,,,,,,,,,001,2021_Mar_02_1856,GuessTheSound,2020.2.10,60.07658565504703,
,,,,,,,,,,,,,,,,,,,,,,,,,,,,,,,,,,,,,,,,,,,,,32.735354400007054,None,space,0.3164925999008119,32.735354400007054,None,,,,,,,,,,,,,,,,,,,,,,,,,,,,,,,,,,,,,,,,,,,,,,,,,,,,,,,,001,2021_Mar_02_1856,GuessTheSound,2020.2.10,60.07658565504703,
,,,,,,,,,,,,,,,,,,,,,,,,,,,,,,,,,,,,,,,,,,,,,,,,,,,32.735354400007054,None,33.08529580011964,None,33.08529580011964,None,space,0.33830539998598397,33.08529580011964,None,,,,,,,,,,,,,,,,,,,,,,,,,,,,,,,,,,,,,,,,,,,,,,001,2021_Mar_02_1856,GuessTheSound,2020.2.10,60.07658565504703,
Practice/Seagull_A.wav,2,3,NEW,Practice,0,0,0,0,,,,,,,,,,,,,,,,,,,,,,,,,,,,,,,,,,,,,,,,,,,,,,,,,,,,,33.81874030013569,None,33.81449991008267,None,33.81874030013569,None,3,1,2.790504900040105,36.13267350010574,None,36.13267350010574,None,36.13267350010574,None,36.13267350010574,None,36.13267350010574,None,38.97452159994282,None,,,,,,,,,,,,,,,,,,,,,,,,,001,2021_Mar_02_1856,GuessTheSound,2020.2.10,60.07658565504703,
Practice/Skid_B.wav,2,3,NEW,Practice,0,1,1,1,,,,,,,,,,,,,,,,,,,,,,,,,,,,,,,,,,,,,,,,,,,,,,,,,,,,,40.0235965999309,None,40.01739457999356,None,40.0235965999309,None,2,0,3.302166200010106,42.13141510006972,None,42.13141510006972,None,42.13141510006972,None,42.13141510006972,None,42.13141510006972,None,45.47921060002409,None,,,,,,,,,,,,,,,,,,,,,,,,,001,2021_Mar_02_1856,GuessTheSound,2020.2.10,60.07658565504703,
Practice/Seagull_A.wav,1,1,OLD,Practice,0,2,2,2,,,,,,,,,,,,,,,,,,,,,,,,,,,,,,,,,,,,,,,,,,,,,,,,,,,,,46.49789210013114,None,46.49777904003858,None,46.49789210013114,None,3,0,1.1849869000725448,48.792511800071225,None,48.792511800071225,None,48.792511800071225,None,48.792511800071225,None,48.792511800071225,None,49.99978070007637,None,,,,,,,,,,,,,,,,,,,,,,,,,001,2021_Mar_02_1856,GuessTheSound,2020.2.10,60.07658565504703,
Practice/Gargle_A.wav,2,3,NEW,Practice,0,3,3,3,,,,,,,,,,,,,,,,,,,,,,,,,,,,,,,,,,,,,,,,,,,,,,,,,,,,,51.07686479995027,None,51.080734350020066,None,51.07686479995027,None,1,0,1.2795777001883835,53.370769100030884,None,53.370769100030884,None,53.370769100030884,None,53.370769100030884,None,53.370769100030884,None,54.681244200095534,None,,,,,,,,,,,,,,,,,,,,,,,,,001,2021_Mar_02_1856,GuessTheSound,2020.2.10,60.07658565504703,
Practice/Gargle_B.wav,2,2,SIMILAR,Practice,0,4,4,4,,,,,,,,,,,,,,,,,,,,,,,,,,,,,,,,,,,,,,,,,,,,,,,,,,,,,55.74640280008316,None,55.74766835011542,None,55.74640280008316,None,3,0,0.6225894000381231,57.830391300143674,None,57.830391300143674,None,57.830391300143674,None,57.830391300143674,None,57.830391300143674,None,58.480781600112095,None,,,,,,,,,,,,,,,,,,,,,,,,,001,2021_Mar_02_1856,GuessTheSound,2020.2.10,60.07658565504703,
,,,,,,,,,,,,,,,,,,,,,,,,,,,,,,,,,,,,,,,,,,,,,,,,,,,,,,,,,,,,,,,,,,,,,,,,,,,,,,,,,,59.481843600049615,None,space,1.2638463000766933,59.481843600049615,None,,,,,,,,,,,,,,,,,,,001,2021_Mar_02_1856,GuessTheSound,2020.2.10,60.07658565504703,
Initial/NoRepeat/Sleighbells_B.wav,1,1,OLD,B,,,,,0,0,0,0,,,,,,,,,,,,,,,,,,,,,,,,,,,,,,,,,,,,,,,,,,,,,,,,,,,,,,,,,,,,,,,,,,,,,,,,,,,,59.481843600049615,None,60.86659470014274,None,62.33072178000584,None,62.33532109996304,None,62.33532109996304,None,64.76814940012991,None,3,0,2.1941337001044303,64.76814940012991,None,,001,2021_Mar_02_1856,GuessTheSound,2020.2.10,60.07658565504703,
CarStart_F.wav,2,3,NEW,C,,,,,0,1,1,1,,,,,,,,,,,,,,,,,,,,,,,,,,,,,,,,,,,,,,,,,,,,,,,,,,,,,,,,,,,,,,,,,,,,,,,,,,,,,,66.98481669998728,None,68.54752827999182,None,68.54135549999774,None,68.54135549999774,None,70.96529239998199,None,3,1,0.5284994998946786,70.96529239998199,None,,001,2021_Mar_02_1856,GuessTheSound,2020.2.10,60.07658565504703,
Bird_E.wav,2,3,NEW,C,,,,,0,2,2,2,,,,,,,,,,,,,,,,,,,,,,,,,,,,,,,,,,,,,,,,,,,,,,,,,,,,,,,,,,,,,,,,,,,,,,,,,,,,,,71.51723519992083,None,73.08092468003743,None,73.08061640011147,None,73.08061640011147,None,75.03171629994176,None,3,1,0.3632465999107808,75.03171629994176,None,,001,2021_Mar_02_1856,GuessTheSound,2020.2.10,60.07658565504703,
Initial/Doubled/Bubbles_A.wav,2,3,NEW,C,,,,,0,3,3,3,,,,,,,,,,,,,,,,,,,,,,,,,,,,,,,,,,,,,,,,,,,,,,,,,,,,,,,,,,,,,,,,,,,,,,,,,,,,,,75.4167371999938,None,76.98107328014449,None,76.98164290003479,None,76.98164290003479,None,79.39818070014007,None,3,1,0.798303599935025,79.39818070014007,None,,001,2021_Mar_02_1856,GuessTheSound,2020.2.10,60.07658565504703,
Test/Foils/Horse.wav,2,3,NEW,C,,,,,0,4,4,4,,,,,,,,,,,,,,,,,,,,,,,,,,,,,,,,,,,,,,,,,,,,,,,,,,,,,,,,,,,,,,,,,,,,,,,,,,,,,,80.21571919997223,None,81.74673314010724,None,81.752709900029,None,81.752709900029,None,83.94807579996996,None,3,1,0.3192306999117136,83.94807579996996,None,,001,2021_Mar_02_1856,GuessTheSound,2020.2.10,60.07658565504703,
Initial/Repeat/IceDrop.wav,2,3,NEW,C,,,,,0,5,5,5,,,,,,,,,,,,,,,,,,,,,,,,,,,,,,,,,,,,,,,,,,,,,,,,,,,,,,,,,,,,,,,,,,,,,,,,,,,,,,84.29733600001782,None,85.8472953800112,None,85.85266100009903,None,85.85266100009903,None,88.28144409996457,None,3,1,1.189871600130573,88.28144409996457,None,,001,2021_Mar_02_1856,GuessTheSound,2020.2.10,60.07658565504703,
Initial/NoRepeat/Sleighbells_B.wav,2,3,NEW,C,,,,,0,6,6,6,,,,,,,,,,,,,,,,,,,,,,,,,,,,,,,,,,,,,,,,,,,,,,,,,,,,,,,,,,,,,,,,,,,,,,,,,,,,,,89.49797040014528,None,91.01398824006318,None,91.01244750013575,None,91.01244750013575,None,93.43137020012364,None,1,0,0.5764971999451518,93.43137020012364,None,,001,2021_Mar_02_1856,GuessTheSound,2020.2.10,60.07658565504703,
Growl_G.wav,2,3,NEW,C,,,,,0,7,7,7,,,,,,,,,,,,,,,,,,,,,,,,,,,,,,,,,,,,,,,,,,,,,,,,,,,,,,,,,,,,,,,,,,,,,,,,,,,,,,94.0323179999832,None,95.5969991800841,None,95.59094020002522,None,95.59094020002522,None,98.01483520003967,None,3,1,0.3847036000806838,98.01483520003967,None,,001,2021_Mar_02_1856,GuessTheSound,2020.2.10,60.07658565504703,
Initial/Doubled/Chicken_A.wav,2,3,NEW,C,,,,,0,8,8,8,,,,,,,,,,,,,,,,,,,,,,,,,,,,,,,,,,,,,,,,,,,,,,,,,,,,,,,,,,,,,,,,,,,,,,,,,,,,,,98.41625130013563,None,99.98096398012713,None,99.98236169992015,None,99.98236169992015,None,101.66466929996386,None,3,1,0.6593251000158489,101.66466929996386,None,,001,2021_Mar_02_1856,GuessTheSound,2020.2.10,60.07658565504703,
Test/Foils/Slurp.wav,2,3,NEW,C,,,,,0,9,9,9,,,,,,,,,,,,,,,,,,,,,,,,,,,,,,,,,,,,,,,,,,,,,,,,,,,,,,,,,,,,,,,,,,,,,,,,,,,,,,102.34889560006559,None,103.91375227998942,None,103.91502870013937,None,103.91502870013937,None,106.2979115000926,None,3,1,0.39400089997798204,106.2979115000926,None,,001,2021_Mar_02_1856,GuessTheSound,2020.2.10,60.07658565504703,
CarStart_E.wav,2,2,SIMILAR,C,,,,,0,10,10,10,,,,,,,,,,,,,,,,,,,,,,,,,,,,,,,,,,,,,,,,,,,,,,,,,,,,,,,,,,,,,,,,,,,,,,,,,,,,,,106.7156964999158,None,108.28053677994758,None,108.27578820008785,None,108.27578820008785,None,110.69784500007518,None,2,1,0.7021554000675678,110.69784500007518,None,,001,2021_Mar_02_1856,GuessTheSound,2020.2.10,60.07658565504703,
Initial/Repeat/Printer.wav,2,3,NEW,C,,,,,0,11,11,11,,,,,,,,,,,,,,,,,,,,,,,,,,,,,,,,,,,,,,,,,,,,,,,,,,,,,,,,,,,,,,,,,,,,,,,,,,,,,,111.43015890009701,None,112.98049427992665,None,112.98229860002175,None,112.98229860002175,None,115.41600150009617,None,3,1,0.5683655999600887,115.41600150009617,None,,001,2021_Mar_02_1856,GuessTheSound,2020.2.10,60.07658565504703,
Test/Foils/Bowlingpins.wav,2,3,NEW,C,,,,,0,12,12,12,,,,,,,,,,,,,,,,,,,,,,,,,,,,,,,,,,,,,,,,,,,,,,,,,,,,,,,,,,,,,,,,,,,,,,,,,,,,,,116.015417000046,None,117.56367671010084,None,117.56071750004776,None,117.56071750004776,None,119.98105880012736,None,3,1,0.2925803998950869,119.98105880012736,None,,001,2021_Mar_02_1856,GuessTheSound,2020.2.10,60.07658565504703,
Initial/NoRepeat/Fireworks.wav,2,3,NEW,C,,,,,0,13,13,13,,,,,,,,,,,,,,,,,,,,,,,,,,,,,,,,,,,,,,,,,,,,,,,,,,,,,,,,,,,,,,,,,,,,,,,,,,,,,,120.29548870003782,None,121.8457849801518,None,121.83862489997409,None,121.83862489997409,None,124.26345820003189,None,3,1,0.5310640002135187,124.26345820003189,None,,001,2021_Mar_02_1856,GuessTheSound,2020.2.10,60.07658565504703,
Initial/Repeat/Howl.wav,2,3,NEW,C,,,,,0,14,14,14,,,,,,,,,,,,,,,,,,,,,,,,,,,,,,,,,,,,,,,,,,,,,,,,,,,,,,,,,,,,,,,,,,,,,,,,,,,,,,124.81289099995047,None,126.34647860992699,None,126.35578730003908,None,126.35578730003908,None,128.7808852000162,None,3,1,0.3536026000510901,128.7808852000162,None,,001,2021_Mar_02_1856,GuessTheSound,2020.2.10,60.07658565504703,
Goat_D.wav,2,3,NEW,C,,,,,0,15,15,15,,,,,,,,,,,,,,,,,,,,,,,,,,,,,,,,,,,,,,,,,,,,,,,,,,,,,,,,,,,,,,,,,,,,,,,,,,,,,,129.16295709996484,None,130.7134420800023,None,130.707673399942,None,130.707673399942,None,132.4309294000268,None,3,1,0.46206049993634224,132.4309294000268,None,,001,2021_Mar_02_1856,GuessTheSound,2020.2.10,60.07658565504703,
Test/Foils/Horse.wav,1,1,OLD,C,,,,,0,16,16,16,,,,,,,,,,,,,,,,,,,,,,,,,,,,,,,,,,,,,,,,,,,,,,,,,,,,,,,,,,,,,,,,,,,,,,,,,,,,,,132.9145448000636,None,134.41356296995656,None,134.4223454000894,None,134.4223454000894,None,136.6144691000227,None,1,1,0.9284067000262439,136.6144691000227,None,,001,2021_Mar_02_1856,GuessTheSound,2020.2.10,60.07658565504703,
Laugh_C.wav,2,3,NEW,C,,,,,0,17,17,17,,,,,,,,,,,,,,,,,,,,,,,,,,,,,,,,,,,,,,,,,,,,,,,,,,,,,,,,,,,,,,,,,,,,,,,,,,,,,,137.5652578000445,None,139.1298638799228,None,139.1249113001395,None,139.1249113001395,None,141.54760059993714,None,3,1,0.47047000005841255,141.54760059993714,None,,001,2021_Mar_02_1856,GuessTheSound,2020.2.10,60.07658565504703,
Test/Lures/Bubbles_B.wav,2,2,SIMILAR,C,,,,,0,18,18,18,,,,,,,,,,,,,,,,,,,,,,,,,,,,,,,,,,,,,,,,,,,,,,,,,,,,,,,,,,,,,,,,,,,,,,,,,,,,,,142.0466489000246,None,143.59669438009152,None,143.6023731001187,None,143.6023731001187,None,146.03056350001134,None,2,1,0.9913440998643637,146.03056350001134,None,,001,2021_Mar_02_1856,GuessTheSound,2020.2.10,60.07658565504703,
Footsteps_G.wav,2,3,NEW,C,,,,,0,19,19,19,,,,,,,,,,,,,,,,,,,,,,,,,,,,,,,,,,,,,,,,,,,,,,,,,,,,,,,,,,,,,,,,,,,,,,,,,,,,,,147.04701620014384,None,148.5797222099267,None,148.57319219992496,None,148.57319219992496,None,150.99757419992238,None,3,1,0.4765445999801159,150.99757419992238,None,,001,2021_Mar_02_1856,GuessTheSound,2020.2.10,60.07658565504703,
Duck_C.wav,2,3,NEW,C,,,,,0,20,20,20,,,,,,,,,,,,,,,,,,,,,,,,,,,,,,,,,,,,,,,,,,,,,,,,,,,,,,,,,,,,,,,,,,,,,,,,,,,,,,151.4969164999202,None,153.04666267992,None,153.04189360002056,None,153.04189360002056,None,155.4640786999371,None,3,1,0.741482799872756,155.4640786999371,None,,001,2021_Mar_02_1856,GuessTheSound,2020.2.10,60.07658565504703,
Initial/NoRepeat/Cow.wav,2,3,NEW,C,,,,,0,21,21,21,,,,,,,,,,,,,,,,,,,,,,,,,,,,,,,,,,,,,,,,,,,,,,,,,,,,,,,,,,,,,,,,,,,,,,,,,,,,,,156.23166480008513,None,157.77997311004438,None,157.78934230003506,None,157.78934230003506,None,159.63080030004494,None,3,1,0.5483319000340998,159.63080030004494,None,,001,2021_Mar_02_1856,GuessTheSound,2020.2.10,60.07658565504703,
Test/Foils/Airhorn.wav,2,3,NEW,C,,,,,0,22,22,22,,,,,,,,,,,,,,,,,,,,,,,,,,,,,,,,,,,,,,,,,,,,,,,,,,,,,,,,,,,,,,,,,,,,,,,,,,,,,,160.19885929999873,None,161.74634551010095,None,161.75017190002836,None,161.75017190002836,None,164.18077139998786,None,3,1,0.44766589999198914,164.18077139998786,None,,001,2021_Mar_02_1856,GuessTheSound,2020.2.10,60.07658565504703,
Initial/Repeat/Printer.wav,1,1,OLD,C,,,,,0,23,23,23,,,,,,,,,,,,,,,,,,,,,,,,,,,,,,,,,,,,,,,,,,,,,,,,,,,,,,,,,,,,,,,,,,,,,,,,,,,,,,164.65093880007043,None,166.1629768700339,None,166.16284890007228,None,166.16284890007228,None,168.5806192001328,None,3,0,0.3833711000625044,168.5806192001328,None,,001,2021_Mar_02_1856,GuessTheSound,2020.2.10,60.07658565504703,
Initial/NoRepeat/Sleighbells_B.wav,1,1,OLD,C,,,,,0,24,24,24,,,,,,,,,,,,,,,,,,,,,,,,,,,,,,,,,,,,,,,,,,,,,,,,,,,,,,,,,,,,,,,,,,,,,,,,,,,,,,168.98042490007356,None,170.4962795401458,None,170.4924641000107,None,170.4924641000107,None,172.9141903000418,None,1,1,1.5751879999879748,172.9141903000418,None,,001,2021_Mar_02_1856,GuessTheSound,2020.2.10,60.07658565504703,
Test/Foils/Camera.wav,2,3,NEW,C,,,,,0,25,25,25,,,,,,,,,,,,,,,,,,,,,,,,,,,,,,,,,,,,,,,,,,,,,,,,,,,,,,,,,,,,,,,,,,,,,,,,,,,,,,174.51459349994548,None,176.06323941014708,None,176.06049449997954,None,176.06049449997954,None,177.030604199972,None,3,1,1.1424581001047045,177.030604199972,None,,001,2021_Mar_02_1856,GuessTheSound,2020.2.10,60.07658565504703,
Growl_H.wav,2,2,SIMILAR,C,,,,,0,26,26,26,,,,,,,,,,,,,,,,,,,,,,,,,,,,,,,,,,,,,,,,,,,,,,,,,,,,,,,,,,,,,,,,,,,,,,,,,,,,,,178.19744040002115,None,179.74620061004535,None,179.74909740011208,None,179.74909740011208,None,182.18005140009336,None,3,0,0.4758287000004202,182.18005140009336,None,,001,2021_Mar_02_1856,GuessTheSound,2020.2.10,60.07658565504703,
Whistle_A.wav,2,3,NEW,C,,,,,0,27,27,27,,,,,,,,,,,,,,,,,,,,,,,,,,,,,,,,,,,,,,,,,,,,,,,,,,,,,,,,,,,,,,,,,,,,,,,,,,,,,,182.68160090013407,None,184.24600478010254,None,184.24115930008702,None,184.24115930008702,None,185.84702460002154,None,3,1,0.5780762999784201,185.84702460002154,None,,001,2021_Mar_02_1856,GuessTheSound,2020.2.10,60.07658565504703,
Piano_D.wav,2,3,NEW,C,,,,,0,28,28,28,,,,,,,,,,,,,,,,,,,,,,,,,,,,,,,,,,,,,,,,,,,,,,,,,,,,,,,,,,,,,,,,,,,,,,,,,,,,,,186.44752270006575,None,188.0128841801081,None,188.01039099995978,None,188.01039099995978,None,190.43046470009722,None,3,1,1.0793262000661343,190.43046470009722,None,,001,2021_Mar_02_1856,GuessTheSound,2020.2.10,60.07658565504703,
Coin_D.wav,2,3,NEW,C,,,,,0,29,29,29,,,,,,,,,,,,,,,,,,,,,,,,,,,,,,,,,,,,,,,,,,,,,,,,,,,,,,,,,,,,,,,,,,,,,,,,,,,,,,191.5298560000956,None,193.06284211003222,None,193.07084880000912,None,193.07084880000912,None,195.24687630007975,None,3,1,0.6277770001906902,195.24687630007975,None,,001,2021_Mar_02_1856,GuessTheSound,2020.2.10,60.07658565504703,
Bird_F.wav,2,2,SIMILAR,C,,,,,0,30,30,30,,,,,,,,,,,,,,,,,,,,,,,,,,,,,,,,,,,,,,,,,,,,,,,,,,,,,,,,,,,,,,,,,,,,,,,,,,,,,,195.89667130005546,None,197.44610668001698,None,197.4420598000288,None,197.4420598000288,None,199.31372829992324,None,2,1,1.7912842999212444,199.31372829992324,None,,001,2021_Mar_02_1856,GuessTheSound,2020.2.10,60.07658565504703,
Initial/Repeat/PaperRip.wav,2,3,NEW,C,,,,,0,31,31,31,,,,,,,,,,,,,,,,,,,,,,,,,,,,,,,,,,,,,,,,,,,,,,,,,,,,,,,,,,,,,,,,,,,,,,,,,,,,,,201.13105660001747,None,202.67921731001698,None,202.6765779000707,None,202.6765779000707,None,204.28012160002254,None,3,1,0.6640171001199633,204.28012160002254,None,,001,2021_Mar_02_1856,GuessTheSound,2020.2.10,60.07658565504703,
Test/Foils/Slurp.wav,1,1,OLD,C,,,,,0,32,32,32,,,,,,,,,,,,,,,,,,,,,,,,,,,,,,,,,,,,,,,,,,,,,,,,,,,,,,,,,,,,,,,,,,,,,,,,,,,,,,204.96453929995187,None,206.4795401701238,None,206.48776779999025,None,206.48776779999025,None,208.86330730002373,None,3,0,0.6137830000370741,208.86330730002373,None,,001,2021_Mar_02_1856,GuessTheSound,2020.2.10,60.07658565504703,
Initial/Repeat/Howl.wav,1,1,OLD,C,,,,,0,33,33,33,,,,,,,,,,,,,,,,,,,,,,,,,,,,,,,,,,,,,,,,,,,,,,,,,,,,,,,,,,,,,,,,,,,,,,,,,,,,,,209.49719500006177,None,211.01276517002844,None,211.01933309994638,None,211.01933309994638,None,213.44687790004537,None,1,1,0.5350621999241412,213.44687790004537,None,,001,2021_Mar_02_1856,GuessTheSound,2020.2.10,60.07658565504703,
Initial/Repeat/IceDrop.wav,1,1,OLD,C,,,,,0,34,34,34,,,,,,,,,,,,,,,,,,,,,,,,,,,,,,,,,,,,,,,,,,,,,,,,,,,,,,,,,,,,,,,,,,,,,,,,,,,,,,214.01244250009768,None,215.51289426996374,None,215.52129970001988,None,215.52129970001988,None,217.94698040001094,None,1,1,0.8920384000521153,217.94698040001094,None,,001,2021_Mar_02_1856,GuessTheSound,2020.2.10,60.07658565504703,
Pour_E.wav,2,3,NEW,C,,,,,0,35,35,35,,,,,,,,,,,,,,,,,,,,,,,,,,,,,,,,,,,,,,,,,,,,,,,,,,,,,,,,,,,,,,,,,,,,,,,,,,,,,,218.86430280003697,None,220.41274380995893,None,220.42158069997095,None,220.42158069997095,None,222.84658390004188,None,3,1,0.6783945998176932,222.84658390004188,None,,001,2021_Mar_02_1856,GuessTheSound,2020.2.10,60.07658565504703,
Initial/NoRepeat/Fireworks.wav,1,1,OLD,C,,,,,0,36,36,36,,,,,,,,,,,,,,,,,,,,,,,,,,,,,,,,,,,,,,,,,,,,,,,,,,,,,,,,,,,,,,,,,,,,,,,,,,,,,,223.54741930007003,None,225.0629028700758,None,225.07089560013264,None,225.07089560013264,None,227.49686060007662,None,1,1,0.7740030998829752,227.49686060007662,None,,001,2021_Mar_02_1856,GuessTheSound,2020.2.10,60.07658565504703,
Footsteps_F.wav,2,2,SIMILAR,C,,,,,0,37,37,37,,,,,,,,,,,,,,,,,,,,,,,,,,,,,,,,,,,,,,,,,,,,,,,,,,,,,,,,,,,,,,,,,,,,,,,,,,,,,,228.29566349997185,None,229.8290845100768,None,229.83773080003448,None,229.83773080003448,None,232.26342110009864,None,3,0,0.7116237999871373,232.26342110009864,None,,001,2021_Mar_02_1856,GuessTheSound,2020.2.10,60.07658565504703,
Initial/Doubled/Chicken_A.wav,1,1,OLD,C,,,,,0,38,38,38,,,,,,,,,,,,,,,,,,,,,,,,,,,,,,,,,,,,,,,,,,,,,,,,,,,,,,,,,,,,,,,,,,,,,,,,,,,,,,232.9985545000527,None,234.5125880699605,None,234.5161685999483,None,234.5161685999483,None,236.19676960003562,None,3,0,0.5943010000046343,236.19676960003562,None,,001,2021_Mar_02_1856,GuessTheSound,2020.2.10,60.07658565504703,
Test/Foils/Bullfrog.wav,2,3,NEW,C,,,,,0,39,39,39,,,,,,,,,,,,,,,,,,,,,,,,,,,,,,,,,,,,,,,,,,,,,,,,,,,,,,,,,,,,,,,,,,,,,,,,,,,,,,236.81362010003068,None,238.36265898011627,None,238.36525309993885,None,238.36525309993885,None,240.79674810008146,None,3,1,0.7812552000395954,240.79674810008146,None,,001,2021_Mar_02_1856,GuessTheSound,2020.2.10,60.07658565504703,
Test/Foils/Bowlingpins.wav,1,1,OLD,C,,,,,0,40,40,40,,,,,,,,,,,,,,,,,,,,,,,,,,,,,,,,,,,,,,,,,,,,,,,,,,,,,,,,,,,,,,,,,,,,,,,,,,,,,,241.59437730000354,None,243.09423397011125,None,243.10317140002735,None,243.10317140002735,None,245.5288800999988,None,3,0,0.45380489993840456,245.5288800999988,None,,001,2021_Mar_02_1856,GuessTheSound,2020.2.10,60.07658565504703,
Initial/NoRepeat/Helicopter_A.wav,2,3,NEW,C,,,,,0,41,41,41,,,,,,,,,,,,,,,,,,,,,,,,,,,,,,,,,,,,,,,,,,,,,,,,,,,,,,,,,,,,,,,,,,,,,,,,,,,,,,246.01158910011873,None,247.5458286100533,None,247.55345090012997,None,247.55345090012997,None,249.97961229993962,None,3,1,0.37708709994331,249.97961229993962,None,,001,2021_Mar_02_1856,GuessTheSound,2020.2.10,60.07658565504703,
Goat_E.wav,2,2,SIMILAR,C,,,,,0,42,42,42,,,,,,,,,,,,,,,,,,,,,,,,,,,,,,,,,,,,,,,,,,,,,,,,,,,,,,,,,,,,,,,,,,,,,,,,,,,,,,250.38139760005288,None,251.92878711000085,None,251.93360870005563,None,251.93360870005563,None,253.6464015999809,None,3,0,0.5659415000118315,253.6464015999809,None,,001,2021_Mar_02_1856,GuessTheSound,2020.2.10,60.07658565504703,
Initial/Doubled/HairDryer_A.wav,2,3,NEW,C,,,,,0,43,43,43,,,,,,,,,,,,,,,,,,,,,,,,,,,,,,,,,,,,,,,,,,,,,,,,,,,,,,,,,,,,,,,,,,,,,,,,,,,,,,254.22901270003058,None,255.778951880103,None,255.77310180012137,None,255.77310180012137,None,258.196492300136,None,3,1,0.5024187001399696,258.196492300136,None,,001,2021_Mar_02_1856,GuessTheSound,2020.2.10,60.07658565504703,
Duck_D.wav,2,2,SIMILAR,C,,,,,0,44,44,44,,,,,,,,,,,,,,,,,,,,,,,,,,,,,,,,,,,,,,,,,,,,,,,,,,,,,,,,,,,,,,,,,,,,,,,,,,,,,,258.7287962001283,None,260.2789390800055,None,260.27603400009684,None,260.27603400009684,None,262.6958616999909,None,2,1,1.0273786000907421,262.6958616999909,None,,001,2021_Mar_02_1856,GuessTheSound,2020.2.10,60.07658565504703,
Initial/Repeat/PaperRip.wav,1,1,OLD,C,,,,,0,45,45,45,,,,,,,,,,,,,,,,,,,,,,,,,,,,,,,,,,,,,,,,,,,,,,,,,,,,,,,,,,,,,,,,,,,,,,,,,,,,,,263.7486666000914,None,265.2618232699577,None,265.26549350004643,None,265.26549350004643,None,266.8631100000348,None,3,0,0.7276393999345601,266.8631100000348,None,,001,2021_Mar_02_1856,GuessTheSound,2020.2.10,60.07658565504703,
Dog_G.wav,2,3,NEW,C,,,,,0,46,46,46,,,,,,,,,,,,,,,,,,,,,,,,,,,,,,,,,,,,,,,,,,,,,,,,,,,,,,,,,,,,,,,,,,,,,,,,,,,,,,267.61269750003703,None,269.14585521011617,None,269.15467240009457,None,269.15467240009457,None,271.5794409001246,None,3,1,0.5132789998315275,271.5794409001246,None,,001,2021_Mar_02_1856,GuessTheSound,2020.2.10,60.07658565504703,
Test/Foils/Camera.wav,1,1,OLD,C,,,,,0,47,47,47,,,,,,,,,,,,,,,,,,,,,,,,,,,,,,,,,,,,,,,,,,,,,,,,,,,,,,,,,,,,,,,,,,,,,,,,,,,,,,272.11283070011996,None,273.6123146700673,None,273.61958270007744,None,273.61958270007744,None,274.5962984999642,None,1,1,0.8680004000198096,274.5962984999642,None,,001,2021_Mar_02_1856,GuessTheSound,2020.2.10,60.07658565504703,
Laugh_F.wav,2,2,SIMILAR,C,,,,,0,48,48,48,,,,,,,,,,,,,,,,,,,,,,,,,,,,,,,,,,,,,,,,,,,,,,,,,,,,,,,,,,,,,,,,,,,,,,,,,,,,,,275.4787506000139,None,277.028684679931,None,277.02642460004427,None,277.02642460004427,None,279.4462908001151,None,3,0,0.5507231999654323,279.4462908001151,None,,001,2021_Mar_02_1856,GuessTheSound,2020.2.10,60.07658565504703,
Initial/Repeat/Sneeze_B.wav,2,3,NEW,C,,,,,0,49,49,49,,,,,,,,,,,,,,,,,,,,,,,,,,,,,,,,,,,,,,,,,,,,,,,,,,,,,,,,,,,,,,,,,,,,,,,,,,,,,,280.0118752999697,None,281.5453262099531,None,281.5512028001249,None,281.5512028001249,None,282.779373700032,None,3,1,0.528544900007546,282.779373700032,None,,001,2021_Mar_02_1856,GuessTheSound,2020.2.10,60.07658565504703,
Initial/NoRepeat/Cow.wav,1,1,OLD,C,,,,,0,50,50,50,,,,,,,,,,,,,,,,,,,,,,,,,,,,,,,,,,,,,,,,,,,,,,,,,,,,,,,,,,,,,,,,,,,,,,,,,,,,,,283.3298852001317,None,284.84520777007566,None,284.85172750009224,None,284.85172750009224,None,286.6958944001235,None,1,1,0.6123769001569599,286.6958944001235,None,,001,2021_Mar_02_1856,GuessTheSound,2020.2.10,60.07658565504703,
Test/Foils/Donkey.wav,2,3,NEW,C,,,,,0,51,51,51,,,,,,,,,,,,,,,,,,,,,,,,,,,,,,,,,,,,,,,,,,,,,,,,,,,,,,,,,,,,,,,,,,,,,,,,,,,,,,287.3305188000668,None,288.89504777994006,None,288.88953620009124,None,288.88953620009124,None,291.31270759995095,None,3,1,0.5973354000598192,291.31270759995095,None,,001,2021_Mar_02_1856,GuessTheSound,2020.2.10,60.07658565504703,
Coin_E.wav,2,2,SIMILAR,C,,,,,0,52,52,52,,,,,,,,,,,,,,,,,,,,,,,,,,,,,,,,,,,,,,,,,,,,,,,,,,,,,,,,,,,,,,,,,,,,,,,,,,,,,,291.93165959999897,None,293.495041579986,None,293.49278400000185,None,293.49278400000185,None,295.51263500005007,None,2,1,1.8541416998486966,295.51263500005007,None,,001,2021_Mar_02_1856,GuessTheSound,2020.2.10,60.07658565504703,
Initial/Repeat/Buzz.wav,2,3,NEW,C,,,,,0,53,53,53,,,,,,,,,,,,,,,,,,,,,,,,,,,,,,,,,,,,,,,,,,,,,,,,,,,,,,,,,,,,,,,,,,,,,,,,,,,,,,297.3960234001279,None,298.96174568012356,None,298.9568060999736,None,298.9568060999736,None,301.26264850003645,None,3,1,0.7117753999773413,301.26264850003645,None,,001,2021_Mar_02_1856,GuessTheSound,2020.2.10,60.07658565504703,
Piano_D.wav,1,1,OLD,C,,,,,0,54,54,54,,,,,,,,,,,,,,,,,,,,,,,,,,,,,,,,,,,,,,,,,,,,,,,,,,,,,,,,,,,,,,,,,,,,,,,,,,,,,,301.99629230005667,None,303.5116129701026,None,303.5181789000053,None,303.5181789000053,None,305.9458789001219,None,1,1,0.4658976998180151,305.9458789001219,None,,001,2021_Mar_02_1856,GuessTheSound,2020.2.10,60.07658565504703,
Initial/NoRepeat/Hammer_A.wav,2,3,NEW,C,,,,,0,55,55,55,,,,,,,,,,,,,,,,,,,,,,,,,,,,,,,,,,,,,,,,,,,,,,,,,,,,,,,,,,,,,,,,,,,,,,,,,,,,,,306.4298030999489,None,307.97818761002276,None,307.98502720007673,None,307.98502720007673,None,310.4125946999993,None,3,1,0.498256100108847,310.4125946999993,None,,001,2021_Mar_02_1856,GuessTheSound,2020.2.10,60.07658565504703,
Test/Foils/Airhorn.wav,1,1,OLD,C,,,,,0,56,56,56,,,,,,,,,,,,,,,,,,,,,,,,,,,,,,,,,,,,,,,,,,,,,,,,,,,,,,,,,,,,,,,,,,,,,,,,,,,,,,310.9340528999455,None,312.4448674700223,None,312.4513324999716,None,312.4513324999716,None,314.87900730012916,None,3,0,0.37825240008533,314.87900730012916,None,,001,2021_Mar_02_1856,GuessTheSound,2020.2.10,60.07658565504703,
Whistle_C.wav,2,2,SIMILAR,C,,,,,0,57,57,57,,,,,,,,,,,,,,,,,,,,,,,,,,,,,,,,,,,,,,,,,,,,,,,,,,,,,,,,,,,,,,,,,,,,,,,,,,,,,,315.279676400125,None,316.8280810100027,None,316.82924470002763,None,316.82924470002763,None,318.62906010006554,None,3,0,0.48024820000864565,318.62906010006554,None,,001,2021_Mar_02_1856,GuessTheSound,2020.2.10,60.07658565504703,
Faucet_D.wav,2,3,NEW,C,,,,,0,58,58,58,,,,,,,,,,,,,,,,,,,,,,,,,,,,,,,,,,,,,,,,,,,,,,,,,,,,,,,,,,,,,,,,,,,,,,,,,,,,,,319.13025670009665,None,320.6780081101228,None,320.6867869000416,None,320.6867869000416,None,323.11207829997875,None,2,0,0.8651410001330078,323.11207829997875,None,,001,2021_Mar_02_1856,GuessTheSound,2020.2.10,60.07658565504703,
Pour_C.wav,2,2,SIMILAR,C,,,,,0,59,59,59,,,,,,,,,,,,,,,,,,,,,,,,,,,,,,,,,,,,,,,,,,,,,,,,,,,,,,,,,,,,,,,,,,,,,,,,,,,,,,323.99676320003346,None,325.544865910057,None,325.5547269000672,None,325.5547269000672,None,327.97889350005426,None,2,1,0.5515719999093562,327.97889350005426,None,,001,2021_Mar_02_1856,GuessTheSound,2020.2.10,60.07658565504703,
Crow_B.wav,2,3,NEW,C,,,,,0,60,60,60,,,,,,,,,,,,,,,,,,,,,,,,,,,,,,,,,,,,,,,,,,,,,,,,,,,,,,,,,,,,,,,,,,,,,,,,,,,,,,328.54468000005,None,330.0945976800751,None,330.09354240004905,None,330.09354240004905,None,332.16237809997983,None,3,1,0.7663611001335084,332.16237809997983,None,,001,2021_Mar_02_1856,GuessTheSound,2020.2.10,60.07658565504703,
Initial/Repeat/Trumpet_B.wav,2,3,NEW,C,,,,,0,61,61,61,,,,,,,,,,,,,,,,,,,,,,,,,,,,,,,,,,,,,,,,,,,,,,,,,,,,,,,,,,,,,,,,,,,,,,,,,,,,,,332.9447773001157,None,334.4945462800562,None,334.4874257000629,None,334.4874257000629,None,336.77882690005936,None,3,1,0.37734169978648424,336.77882690005936,None,,001,2021_Mar_02_1856,GuessTheSound,2020.2.10,60.07658565504703,
Test/Foils/Bullfrog.wav,1,1,OLD,C,,,,,0,62,62,62,,,,,,,,,,,,,,,,,,,,,,,,,,,,,,,,,,,,,,,,,,,,,,,,,,,,,,,,,,,,,,,,,,,,,,,,,,,,,,337.1796822999604,None,338.69453387004324,None,338.70305170002393,None,338.70305170002393,None,341.12878299993463,None,1,1,0.7352632998954505,341.12878299993463,None,,001,2021_Mar_02_1856,GuessTheSound,2020.2.10,60.07658565504703,
Initial/NoRepeat/Helicopter_A.wav,1,1,OLD,C,,,,,0,63,63,63,,,,,,,,,,,,,,,,,,,,,,,,,,,,,,,,,,,,,,,,,,,,,,,,,,,,,,,,,,,,,,,,,,,,,,,,,,,,,,341.8952911000233,None,343.4112788400613,None,343.4053044000175,None,343.4053044000175,None,345.8287818999961,None,3,0,0.5662950999103487,345.8287818999961,None,,001,2021_Mar_02_1856,GuessTheSound,2020.2.10,60.07658565504703,
Elephant_C.wav,2,3,NEW,C,,,,,0,64,64,64,,,,,,,,,,,,,,,,,,,,,,,,,,,,,,,,,,,,,,,,,,,,,,,,,,,,,,,,,,,,,,,,,,,,,,,,,,,,,,346.41180090000853,None,347.94447021009404,None,347.9498099000193,None,347.9498099000193,None,350.37864280003123,None,3,1,0.5520691000856459,350.37864280003123,None,,001,2021_Mar_02_1856,GuessTheSound,2020.2.10,60.07658565504703,
Initial/Repeat/Sneeze_B.wav,1,1,OLD,C,,,,,0,65,65,65,,,,,,,,,,,,,,,,,,,,,,,,,,,,,,,,,,,,,,,,,,,,,,,,,,,,,,,,,,,,,,,,,,,,,,,,,,,,,,350.96229259995744,None,352.46142706992106,None,352.46907330001704,None,352.46907330001704,None,353.6955385999754,None,1,1,0.5596930999308825,353.6955385999754,None,,001,2021_Mar_02_1856,GuessTheSound,2020.2.10,60.07658565504703,
Chime_B.wav,2,3,NEW,C,,,,,0,66,66,66,,,,,,,,,,,,,,,,,,,,,,,,,,,,,,,,,,,,,,,,,,,,,,,,,,,,,,,,,,,,,,,,,,,,,,,,,,,,,,354.2777279999573,None,355.811258809967,None,355.8195498001296,None,355.8195498001296,None,358.24544680002145,None,3,1,0.3951214998960495,358.24544680002145,None,,001,2021_Mar_02_1856,GuessTheSound,2020.2.10,60.07658565504703,
Phone_D.wav,2,3,NEW,C,,,,,0,67,67,67,,,,,,,,,,,,,,,,,,,,,,,,,,,,,,,,,,,,,,,,,,,,,,,,,,,,,,,,,,,,,,,,,,,,,,,,,,,,,,358.66258330014534,None,360.22783947996794,None,360.22459840006195,None,360.22459840006195,None,362.6435682999436,None,3,1,0.8944479001220316,362.6435682999436,None,,001,2021_Mar_02_1856,GuessTheSound,2020.2.10,60.07658565504703,
Initial/Doubled/HairDryer_A.wav,1,1,OLD,C,,,,,0,68,68,68,,,,,,,,,,,,,,,,,,,,,,,,,,,,,,,,,,,,,,,,,,,,,,,,,,,,,,,,,,,,,,,,,,,,,,,,,,,,,,363.55992139992304,None,365.07682004002857,None,365.0717953001149,None,365.0717953001149,None,367.494674900081,None,1,1,0.7538042000960559,367.494674900081,None,,001,2021_Mar_02_1856,GuessTheSound,2020.2.10,60.07658565504703,
Initial/NoRepeat/Puff_A.wav,2,3,NEW,C,,,,,0,69,69,69,,,,,,,,,,,,,,,,,,,,,,,,,,,,,,,,,,,,,,,,,,,,,,,,,,,,,,,,,,,,,,,,,,,,,,,,,,,,,,368.2791536001023,None,369.827433409961,None,369.8314332999289,None,369.8314332999289,None,371.52843519998714,None,3,1,0.37467589997686446,371.52843519998714,None,,001,2021_Mar_02_1856,GuessTheSound,2020.2.10,60.07658565504703,
Dog_H.wav,2,2,SIMILAR,C,,,,,0,70,70,70,,,,,,,,,,,,,,,,,,,,,,,,,,,,,,,,,,,,,,,,,,,,,,,,,,,,,,,,,,,,,,,,,,,,,,,,,,,,,,371.9299038001336,None,373.477568609966,None,373.4815126999747,None,373.4815126999747,None,375.9116481000092,None,3,0,0.2752427998930216,375.9116481000092,None,,001,2021_Mar_02_1856,GuessTheSound,2020.2.10,60.07658565504703,
Test/Foils/Donkey.wav,1,1,OLD,C,,,,,0,71,71,71,,,,,,,,,,,,,,,,,,,,,,,,,,,,,,,,,,,,,,,,,,,,,,,,,,,,,,,,,,,,,,,,,,,,,,,,,,,,,,376.2118224001024,None,377.7277862400748,None,377.72528190002777,None,377.72528190002777,None,380.14528200007044,None,1,1,0.6082638998050243,380.14528200007044,None,,001,2021_Mar_02_1856,GuessTheSound,2020.2.10,60.07658565504703,
Initial/NoRepeat/Toilet_B.wav,2,3,NEW,C,,,,,0,72,72,72,,,,,,,,,,,,,,,,,,,,,,,,,,,,,,,,,,,,,,,,,,,,,,,,,,,,,,,,,,,,,,,,,,,,,,,,,,,,,,380.7801341000013,None,382.32721980996433,None,382.31721960008144,None,382.31721960008144,None,384.74494830006734,None,3,1,0.3516428000293672,384.74494830006734,None,,001,2021_Mar_02_1856,GuessTheSound,2020.2.10,60.07658565504703,
Initial/Doubled/Writing_A.wav,2,3,NEW,C,,,,,0,73,73,73,,,,,,,,,,,,,,,,,,,,,,,,,,,,,,,,,,,,,,,,,,,,,,,,,,,,,,,,,,,,,,,,,,,,,,,,,,,,,,385.12738870014437,None,386.6608415100258,None,386.6671170000918,None,386.6671170000918,None,389.0950349001214,None,3,1,0.44900060002692044,389.0950349001214,None,,001,2021_Mar_02_1856,GuessTheSound,2020.2.10,60.07658565504703,
Initial/Repeat/Cello.wav,2,3,NEW,C,,,,,0,74,74,74,,,,,,,,,,,,,,,,,,,,,,,,,,,,,,,,,,,,,,,,,,,,,,,,,,,,,,,,,,,,,,,,,,,,,,,,,,,,,,389.56168769998476,None,391.09422751013193,None,391.101924699964,None,391.101924699964,None,393.52825310011394,None,3,1,0.39439320005476475,393.52825310011394,None,,001,2021_Mar_02_1856,GuessTheSound,2020.2.10,60.07658565504703,
Crow_A.wav,2,2,SIMILAR,C,,,,,0,75,75,75,,,,,,,,,,,,,,,,,,,,,,,,,,,,,,,,,,,,,,,,,,,,,,,,,,,,,,,,,,,,,,,,,,,,,,,,,,,,,,393.94521709997207,None,395.49427290991883,None,395.497707700124,None,395.497707700124,None,397.3279574001208,None,2,1,0.6258432001341134,397.3279574001208,None,,001,2021_Mar_02_1856,GuessTheSound,2020.2.10,60.07658565504703,
Initial/NoRepeat/Hammer_A.wav,1,1,OLD,C,,,,,0,76,76,76,,,,,,,,,,,,,,,,,,,,,,,,,,,,,,,,,,,,,,,,,,,,,,,,,,,,,,,,,,,,,,,,,,,,,,,,,,,,,,397.97761910012923,None,399.4772633700166,None,399.4874042000156,None,399.4874042000156,None,401.91155269998126,None,1,1,0.5811812998726964,401.91155269998126,None,,001,2021_Mar_02_1856,GuessTheSound,2020.2.10,60.07658565504703,
Initial/Doubled/Cuckoo_A.wav,2,3,NEW,C,,,,,0,77,77,77,,,,,,,,,,,,,,,,,,,,,,,,,,,,,,,,,,,,,,,,,,,,,,,,,,,,,,,,,,,,,,,,,,,,,,,,,,,,,,402.51926670013927,None,404.0772606800776,None,404.074319700012,None,404.074319700012,None,406.49472660012543,None,3,1,0.31735020014457405,406.49472660012543,None,,001,2021_Mar_02_1856,GuessTheSound,2020.2.10,60.07658565504703,
Initial/Repeat/Buzz.wav,1,1,OLD,C,,,,,0,78,78,78,,,,,,,,,,,,,,,,,,,,,,,,,,,,,,,,,,,,,,,,,,,,,,,,,,,,,,,,,,,,,,,,,,,,,,,,,,,,,,406.8285304000601,None,408.3438159699552,None,408.3530385000631,None,408.3530385000631,None,410.6614119000733,None,1,1,0.3342430000193417,410.6614119000733,None,,001,2021_Mar_02_1856,GuessTheSound,2020.2.10,60.07658565504703,
Siren_E.wav,2,3,NEW,C,,,,,0,79,79,79,,,,,,,,,,,,,,,,,,,,,,,,,,,,,,,,,,,,,,,,,,,,,,,,,,,,,,,,,,,,,,,,,,,,,,,,,,,,,,411.0118907999713,None,412.5771923801396,None,412.57085080002435,None,412.57085080002435,None,414.99498730013147,None,3,1,0.5097653998527676,414.99498730013147,None,,001,2021_Mar_02_1856,GuessTheSound,2020.2.10,60.07658565504703,
Initial/Repeat/Trumpet_B.wav,1,1,OLD,C,,,,,0,80,80,80,,,,,,,,,,,,,,,,,,,,,,,,,,,,,,,,,,,,,,,,,,,,,,,,,,,,,,,,,,,,,,,,,,,,,,,,,,,,,,415.5280466999393,None,417.0438737400342,None,417.0371264000423,None,417.0371264000423,None,419.3279393000994,None,1,1,0.5877729998901486,419.3279393000994,None,,001,2021_Mar_02_1856,GuessTheSound,2020.2.10,60.07658565504703,
Test/Foils/Wind_B.wav,2,3,NEW,C,,,,,0,81,81,81,,,,,,,,,,,,,,,,,,,,,,,,,,,,,,,,,,,,,,,,,,,,,,,,,,,,,,,,,,,,,,,,,,,,,,,,,,,,,,419.94395230012015,None,421.49364048014394,None,421.4917355000507,None,421.4917355000507,None,423.90967050008476,None,3,1,0.3868857000488788,423.90967050008476,None,,001,2021_Mar_02_1856,GuessTheSound,2020.2.10,60.07658565504703,
Initial/Doubled/Cat_A.wav,2,3,NEW,C,,,,,0,82,82,82,,,,,,,,,,,,,,,,,,,,,,,,,,,,,,,,,,,,,,,,,,,,,,,,,,,,,,,,,,,,,,,,,,,,,,,,,,,,,,424.3259912999347,None,425.8760610800702,None,425.879507600097,None,425.879507600097,None,427.29379569995217,None,3,1,0.29354849993251264,427.29379569995217,None,,001,2021_Mar_02_1856,GuessTheSound,2020.2.10,60.07658565504703,
Phone_E.wav,2,2,SIMILAR,C,,,,,0,83,83,83,,,,,,,,,,,,,,,,,,,,,,,,,,,,,,,,,,,,,,,,,,,,,,,,,,,,,,,,,,,,,,,,,,,,,,,,,,,,,,427.6107507001143,None,429.1100248700939,None,429.1140491999686,None,429.1140491999686,None,431.5447677001357,None,2,1,0.6572570998687297,431.5447677001357,None,,001,2021_Mar_02_1856,GuessTheSound,2020.2.10,60.07658565504703,
Chomp_F.wav,2,3,NEW,C,,,,,0,84,84,84,,,,,,,,,,,,,,,,,,,,,,,,,,,,,,,,,,,,,,,,,,,,,,,,,,,,,,,,,,,,,,,,,,,,,,,,,,,,,,432.2268888000399,None,433.76027461010966,None,433.7655732999556,None,433.7655732999556,None,436.1111912999768,None,3,1,0.4631101000122726,436.1111912999768,None,,001,2021_Mar_02_1856,GuessTheSound,2020.2.10,60.07658565504703,
Elephant_D.wav,2,2,SIMILAR,C,,,,,0,85,85,85,,,,,,,,,,,,,,,,,,,,,,,,,,,,,,,,,,,,,,,,,,,,,,,,,,,,,,,,,,,,,,,,,,,,,,,,,,,,,,436.59528749994934,None,438.14399891006764,None,438.1525763999671,None,438.1525763999671,None,440.5777682000771,None,2,1,0.4875357998535037,440.5777682000771,None,,001,2021_Mar_02_1856,GuessTheSound,2020.2.10,60.07658565504703,
Initial/Repeat/Cup.wav,2,3,NEW,C,,,,,0,86,86,86,,,,,,,,,,,,,,,,,,,,,,,,,,,,,,,,,,,,,,,,,,,,,,,,,,,,,,,,,,,,,,,,,,,,,,,,,,,,,,441.09407639992423,None,442.626747710025,None,442.63467600010335,None,442.63467600010335,None,443.9608742001001,None,3,1,0.2900577997788787,443.9608742001001,None,,001,2021_Mar_02_1856,GuessTheSound,2020.2.10,60.07658565504703,
Chime_A.wav,2,2,SIMILAR,C,,,,,0,87,87,87,,,,,,,,,,,,,,,,,,,,,,,,,,,,,,,,,,,,,,,,,,,,,,,,,,,,,,,,,,,,,,,,,,,,,,,,,,,,,,444.2772830000613,None,445.8269845799543,None,445.8358861999586,None,445.8358861999586,None,448.2611831999384,None,3,0,0.4303997999522835,448.2611831999384,None,,001,2021_Mar_02_1856,GuessTheSound,2020.2.10,60.07658565504703,
Initial/NoRepeat/Droplet_B.wav,2,3,NEW,C,,,,,0,88,88,88,,,,,,,,,,,,,,,,,,,,,,,,,,,,,,,,,,,,,,,,,,,,,,,,,,,,,,,,,,,,,,,,,,,,,,,,,,,,,,448.7125860999804,None,450.27664768001995,None,450.27102890005335,None,450.27102890005335,None,452.4276207999792,None,3,1,0.6766009998973459,452.4276207999792,None,,001,2021_Mar_02_1856,GuessTheSound,2020.2.10,60.07658565504703,
Faucet_C.wav,2,2,SIMILAR,C,,,,,0,89,89,89,,,,,,,,,,,,,,,,,,,,,,,,,,,,,,,,,,,,,,,,,,,,,,,,,,,,,,,,,,,,,,,,,,,,,,,,,,,,,,453.1270582000725,None,454.65991490995515,None,454.6675675001461,None,454.6675675001461,None,457.0943221000489,None,2,1,2.1578323000576347,457.0943221000489,None,,001,2021_Mar_02_1856,GuessTheSound,2020.2.10,60.07658565504703,
Initial/NoRepeat/Puff_A.wav,1,1,OLD,C,,,,,0,90,90,90,,,,,,,,,,,,,,,,,,,,,,,,,,,,,,,,,,,,,,,,,,,,,,,,,,,,,,,,,,,,,,,,,,,,,,,,,,,,,,459.2774384999648,None,460.77675006999635,None,460.78484020009637,None,460.78484020009637,None,462.47753849998116,None,3,0,0.5193350999616086,462.47753849998116,None,,001,2021_Mar_02_1856,GuessTheSound,2020.2.10,60.07658565504703,
Clap_B.wav,2,3,NEW,C,,,,,0,91,91,91,,,,,,,,,,,,,,,,,,,,,,,,,,,,,,,,,,,,,,,,,,,,,,,,,,,,,,,,,,,,,,,,,,,,,,,,,,,,,,463.02653150004335,None,464.5766844801139,None,464.57377150002867,None,464.57377150002867,None,466.9945036000572,None,3,1,13.789131799945608,466.9945036000572,None,,001,2021_Mar_02_1856,GuessTheSound,2020.2.10,60.07658565504703,
Initial/Repeat/Cello.wav,1,1,OLD,C,,,,,0,92,92,92,,,,,,,,,,,,,,,,,,,,,,,,,,,,,,,,,,,,,,,,,,,,,,,,,,,,,,,,,,,,,,,,,,,,,,,,,,,,,,480.80995659995824,None,482.3267219400965,None,482.3196491000708,None,482.3196491000708,None,484.7441229999531,None,1,1,0.3529356000944972,484.7441229999531,None,,001,2021_Mar_02_1856,GuessTheSound,2020.2.10,60.07658565504703,
Initial/NoRepeat/Mosquito_B.wav,2,3,NEW,C,,,,,0,93,93,93,,,,,,,,,,,,,,,,,,,,,,,,,,,,,,,,,,,,,,,,,,,,,,,,,,,,,,,,,,,,,,,,,,,,,,,,,,,,,,485.12719699996524,None,486.659787010029,None,486.66723689995706,None,486.66723689995706,None,488.81066319998354,None,3,1,0.4229149997700006,488.81066319998354,None,,001,2021_Mar_02_1856,GuessTheSound,2020.2.10,60.07658565504703,
Writing_C.wav,2,2,SIMILAR,C,,,,,0,94,94,94,,,,,,,,,,,,,,,,,,,,,,,,,,,,,,,,,,,,,,,,,,,,,,,,,,,,,,,,,,,,,,,,,,,,,,,,,,,,,,489.2604871999938,None,490.7930836101063,None,490.80314330011606,None,490.80314330011606,None,493.22722190013155,None,2,1,0.6585967000573874,493.22722190013155,None,,001,2021_Mar_02_1856,GuessTheSound,2020.2.10,60.07658565504703,
Test/Lures/Guitar_B.wav,2,3,NEW,C,,,,,0,95,95,95,,,,,,,,,,,,,,,,,,,,,,,,,,,,,,,,,,,,,,,,,,,,,,,,,,,,,,,,,,,,,,,,,,,,,,,,,,,,,,493.91025710012764,None,495.44307400994006,None,495.4519664000254,None,495.4519664000254,None,497.7773528001271,None,3,1,0.2949564999435097,497.7773528001271,None,,001,2021_Mar_02_1856,GuessTheSound,2020.2.10,60.07658565504703,
Initial/NoRepeat/Toilet_B.wav,1,1,OLD,C,,,,,0,96,96,96,,,,,,,,,,,,,,,,,,,,,,,,,,,,,,,,,,,,,,,,,,,,,,,,,,,,,,,,,,,,,,,,,,,,,,,,,,,,,,498.0957997001242,None,499.6096841699444,None,499.6183156000916,None,499.6183156000916,None,502.04398650000803,None,1,1,0.35796060017310083,502.04398650000803,None,,001,2021_Mar_02_1856,GuessTheSound,2020.2.10,60.07658565504703,
Initial/Repeat/Bagpipe.wav,2,3,NEW,C,,,,,0,97,97,97,,,,,,,,,,,,,,,,,,,,,,,,,,,,,,,,,,,,,,,,,,,,,,,,,,,,,,,,,,,,,,,,,,,,,,,,,,,,,,502.42811720003374,None,503.9763963100035,None,503.984667400131,None,503.984667400131,None,506.3604016001336,None,1,0,0.49165300000458956,506.3604016001336,None,,001,2021_Mar_02_1856,GuessTheSound,2020.2.10,60.07658565504703,
Initial/Doubled/Cuckoo_A.wav,1,1,OLD,C,,,,,0,98,98,98,,,,,,,,,,,,,,,,,,,,,,,,,,,,,,,,,,,,,,,,,,,,,,,,,,,,,,,,,,,,,,,,,,,,,,,,,,,,,,506.8764480999671,None,508.3929586400278,None,508.3860241000075,None,508.3860241000075,None,510.810353100067,None,1,1,0.03332870011217892,510.810353100067,None,,001,2021_Mar_02_1856,GuessTheSound,2020.2.10,60.07658565504703,
Test/Foils/Wind_B.wav,1,1,OLD,C,,,,,0,99,99,99,,,,,,,,,,,,,,,,,,,,,,,,,,,,,,,,,,,,,,,,,,,,,,,,,,,,,,,,,,,,,,,,,,,,,,,,,,,,,,510.8614581001457,None,512.3761704700999,None,512.3850634000264,None,512.3850634000264,None,514.8104618999641,None,1,1,0.4303619998972863,514.8104618999641,None,,001,2021_Mar_02_1856,GuessTheSound,2020.2.10,60.07658565504703,
Cough_G.wav,2,3,NEW,C,,,,,0,100,100,100,,,,,,,,,,,,,,,,,,,,,,,,,,,,,,,,,,,,,,,,,,,,,,,,,,,,,,,,,,,,,,,,,,,,,,,,,,,,,,515.2595661000814,None,516.793033110071,None,516.8026561001316,None,516.8026561001316,None,518.2103279000148,None,3,1,0.44900609995238483,518.2103279000148,None,,001,2021_Mar_02_1856,GuessTheSound,2020.2.10,60.07658565504703,
Initial/Repeat/ManWhistle.wav,2,3,NEW,C,,,,,0,101,101,101,,,,,,,,,,,,,,,,,,,,,,,,,,,,,,,,,,,,,,,,,,,,,,,,,,,,,,,,,,,,,,,,,,,,,,,,,,,,,,518.6761469000485,None,520.2094544101041,None,520.2174422999378,None,520.2174422999378,None,522.4434235999361,None,3,1,0.26989550003781915,522.4434235999361,None,,001,2021_Mar_02_1856,GuessTheSound,2020.2.10,60.07658565504703,
Chomp_E.wav,2,2,SIMILAR,C,,,,,0,102,102,102,,,,,,,,,,,,,,,,,,,,,,,,,,,,,,,,,,,,,,,,,,,,,,,,,,,,,,,,,,,,,,,,,,,,,,,,,,,,,,522.7434237999842,None,524.2759215099271,None,524.281313000014,None,524.281313000014,None,526.4941676000599,None,2,1,0.48212200007401407,526.4941676000599,None,,001,2021_Mar_02_1856,GuessTheSound,2020.2.10,60.07658565504703,
Siren_B.wav,2,2,SIMILAR,C,,,,,0,103,103,103,,,,,,,,,,,,,,,,,,,,,,,,,,,,,,,,,,,,,,,,,,,,,,,,,,,,,,,,,,,,,,,,,,,,,,,,,,,,,,526.9952835000586,None,528.5428082101047,None,528.5416095000692,None,528.5416095000692,None,530.9600629999768,None,2,1,0.5746921999379992,530.9600629999768,None,,001,2021_Mar_02_1856,GuessTheSound,2020.2.10,60.07658565504703,
Initial/NoRepeat/Thunder_A.wav,2,3,NEW,C,,,,,0,104,104,104,,,,,,,,,,,,,,,,,,,,,,,,,,,,,,,,,,,,,,,,,,,,,,,,,,,,,,,,,,,,,,,,,,,,,,,,,,,,,,531.5606082000304,None,533.1093831100501,None,533.1157933999784,None,533.1157933999784,None,535.5435423001181,None,1,0,0.5327729999553412,535.5435423001181,None,,001,2021_Mar_02_1856,GuessTheSound,2020.2.10,60.07658565504703,
Initial/Doubled/Cat_A.wav,1,1,OLD,C,,,,,0,105,105,105,,,,,,,,,,,,,,,,,,,,,,,,,,,,,,,,,,,,,,,,,,,,,,,,,,,,,,,,,,,,,,,,,,,,,,,,,,,,,,536.0929493999574,None,537.5924510699231,None,537.6006486001424,None,537.6006486001424,None,539.026726400014,None,1,1,0.3239841000176966,539.026726400014,None,,001,2021_Mar_02_1856,GuessTheSound,2020.2.10,60.07658565504703,
Snore_D.wav,2,3,NEW,C,,,,,0,106,106,106,,,,,,,,,,,,,,,,,,,,,,,,,,,,,,,,,,,,,,,,,,,,,,,,,,,,,,,,,,,,,,,,,,,,,,,,,,,,,,539.3757921000943,None,540.9256727800704,None,540.9205728000961,None,540.9205728000961,None,543.3418203999754,None,1,0,0.7271770001389086,543.3418203999754,None,,001,2021_Mar_02_1856,GuessTheSound,2020.2.10,60.07658565504703,
Initial/Repeat/Cup.wav,1,1,OLD,C,,,,,0,107,107,107,,,,,,,,,,,,,,,,,,,,,,,,,,,,,,,,,,,,,,,,,,,,,,,,,,,,,,,,,,,,,,,,,,,,,,,,,,,,,,544.0910255000927,None,545.5912604699377,None,545.5978123000823,None,545.5978123000823,None,546.9255739001092,None,3,0,0.45379990013316274,546.9255739001092,None,,001,2021_Mar_02_1856,GuessTheSound,2020.2.10,60.07658565504703,
Baby_F.wav,2,3,NEW,C,,,,,0,108,108,108,,,,,,,,,,,,,,,,,,,,,,,,,,,,,,,,,,,,,,,,,,,,,,,,,,,,,,,,,,,,,,,,,,,,,,,,,,,,,,547.4082400000188,None,548.9418167100288,None,548.9519831000362,None,548.9519831000362,None,551.2262303000316,None,3,1,0.6744152000173926,551.2262303000316,None,,001,2021_Mar_02_1856,GuessTheSound,2020.2.10,60.07658565504703,
Initial/NoRepeat/Droplet_B.wav,1,1,OLD,C,,,,,0,109,109,109,,,,,,,,,,,,,,,,,,,,,,,,,,,,,,,,,,,,,,,,,,,,,,,,,,,,,,,,,,,,,,,,,,,,,,,,,,,,,,551.9272423000075,None,553.4425296699162,None,553.4507363999728,None,553.4507363999728,None,555.6097293000203,None,1,1,0.6304599998984486,555.6097293000203,None,,001,2021_Mar_02_1856,GuessTheSound,2020.2.10,60.07658565504703,
Test/Foils/DialTone.wav,2,3,NEW,C,,,,,0,110,110,110,,,,,,,,,,,,,,,,,,,,,,,,,,,,,,,,,,,,,,,,,,,,,,,,,,,,,,,,,,,,,,,,,,,,,,,,,,,,,,556.2597612000536,None,557.7925006100908,None,557.8007658999413,None,557.8007658999413,None,560.2265600999817,None,3,1,0.3581620999611914,560.2265600999817,None,,001,2021_Mar_02_1856,GuessTheSound,2020.2.10,60.07658565504703,
Clap_C.wav,2,2,SIMILAR,C,,,,,0,111,111,111,,,,,,,,,,,,,,,,,,,,,,,,,,,,,,,,,,,,,,,,,,,,,,,,,,,,,,,,,,,,,,,,,,,,,,,,,,,,,,560.6109319000971,None,562.1755686800926,None,562.1742024000268,None,562.1742024000268,None,564.593169900123,None,2,1,1.3000342999584973,564.593169900123,None,,001,2021_Mar_02_1856,GuessTheSound,2020.2.10,60.07658565504703,
Test/Foils/Heartbeat.wav,2,3,NEW,C,,,,,0,112,112,112,,,,,,,,,,,,,,,,,,,,,,,,,,,,,,,,,,,,,,,,,,,,,,,,,,,,,,,,,,,,,,,,,,,,,,,,,,,,,,565.9098998000845,None,567.4426375099923,None,567.4442122001201,None,567.4442122001201,None,569.8596803001128,None,3,1,0.32784330006688833,569.8596803001128,None,,001,2021_Mar_02_1856,GuessTheSound,2020.2.10,60.07658565504703,
Test/Lures/Guitar_B.wav,1,1,OLD,C,,,,,0,113,113,113,,,,,,,,,,,,,,,,,,,,,,,,,,,,,,,,,,,,,,,,,,,,,,,,,,,,,,,,,,,,,,,,,,,,,,,,,,,,,,570.2098475999665,None,571.7090670701116,None,571.7183302999474,None,571.7183302999474,None,574.0430006999522,None,3,0,0.2913058998528868,574.0430006999522,None,,001,2021_Mar_02_1856,GuessTheSound,2020.2.10,60.07658565504703,
Test/Foils/Typing.wav,2,3,NEW,C,,,,,0,114,114,114,,,,,,,,,,,,,,,,,,,,,,,,,,,,,,,,,,,,,,,,,,,,,,,,,,,,,,,,,,,,,,,,,,,,,,,,,,,,,,574.3603720001411,None,575.9088004099671,None,575.914592999965,None,575.914592999965,None,578.3431144000497,None,3,1,0.6434234001208097,578.3431144000497,None,,001,2021_Mar_02_1856,GuessTheSound,2020.2.10,60.07658565504703,
Initial/NoRepeat/Mosquito_B.wav,1,1,OLD,C,,,,,0,115,115,115,,,,,,,,,,,,,,,,,,,,,,,,,,,,,,,,,,,,,,,,,,,,,,,,,,,,,,,,,,,,,,,,,,,,,,,,,,,,,,579.0104461999144,None,580.5253944699186,None,580.5328123001382,None,580.5328123001382,None,582.6764839000534,None,3,0,1.3136294998694211,582.6764839000534,None,,001,2021_Mar_02_1856,GuessTheSound,2020.2.10,60.07658565504703,
Initial/Repeat/Airplane_B.wav,2,3,NEW,C,,,,,0,116,116,116,,,,,,,,,,,,,,,,,,,,,,,,,,,,,,,,,,,,,,,,,,,,,,,,,,,,,,,,,,,,,,,,,,,,,,,,,,,,,,584.0129370000213,None,585.5753484799526,None,585.5822089000139,None,585.5822089000139,None,588.0095166999381,None,3,1,0.3244412001222372,588.0095166999381,None,,001,2021_Mar_02_1856,GuessTheSound,2020.2.10,60.07658565504703,
Initial/Repeat/ManWhistle.wav,1,1,OLD,C,,,,,0,117,117,117,,,,,,,,,,,,,,,,,,,,,,,,,,,,,,,,,,,,,,,,,,,,,,,,,,,,,,,,,,,,,,,,,,,,,,,,,,,,,,588.359798700083,None,589.8934589399955,None,589.8887267999817,None,589.8887267999817,None,592.1093200999312,None,3,0,0.32159730000421405,592.1093200999312,None,,001,2021_Mar_02_1856,GuessTheSound,2020.2.10,60.07658565504703,
Test/Foils/Steam.wav,2,3,NEW,C,,,,,0,118,118,118,,,,,,,,,,,,,,,,,,,,,,,,,,,,,,,,,,,,,,,,,,,,,,,,,,,,,,,,,,,,,,,,,,,,,,,,,,,,,,592.4586102000903,None,594.0253668499645,None,594.0219199000858,None,594.0219199000858,None,596.4429520000704,None,3,1,0.8908458000514656,596.4429520000704,None,,001,2021_Mar_02_1856,GuessTheSound,2020.2.10,60.07658565504703,
Baby_E.wav,2,2,SIMILAR,C,,,,,0,119,119,119,,,,,,,,,,,,,,,,,,,,,,,,,,,,,,,,,,,,,,,,,,,,,,,,,,,,,,,,,,,,,,,,,,,,,,,,,,,,,,597.3598700999282,None,598.9250574799254,None,598.9253352999222,None,598.9253352999222,None,601.1929319000337,None,2,1,0.5012640999630094,601.1929319000337,None,,001,2021_Mar_02_1856,GuessTheSound,2020.2.10,60.07658565504703,
Initial/Repeat/Bagpipe.wav,1,1,OLD,C,,,,,0,120,120,120,,,,,,,,,,,,,,,,,,,,,,,,,,,,,,,,,,,,,,,,,,,,,,,,,,,,,,,,,,,,,,,,,,,,,,,,,,,,,,601.7090282000136,None,603.2253903401083,None,603.2187690001447,None,603.2187690001447,None,605.5928128000814,None,1,1,0.35846560006029904,605.5928128000814,None,,001,2021_Mar_02_1856,GuessTheSound,2020.2.10,60.07658565504703,
Cough_H.wav,2,2,SIMILAR,C,,,,,0,121,121,121,,,,,,,,,,,,,,,,,,,,,,,,,,,,,,,,,,,,,,,,,,,,,,,,,,,,,,,,,,,,,,,,,,,,,,,,,,,,,,605.9778420000803,None,607.525045910012,None,607.5292267999612,None,607.5292267999612,None,608.9454457000829,None,1,0,0.6388008999638259,608.9454457000829,None,,001,2021_Mar_02_1856,GuessTheSound,2020.2.10,60.07658565504703,
Initial/Repeat/Airplane_B.wav,1,1,OLD,C,,,,,0,122,122,122,,,,,,,,,,,,,,,,,,,,,,,,,,,,,,,,,,,,,,,,,,,,,,,,,,,,,,,,,,,,,,,,,,,,,,,,,,,,,,609.6106052999385,None,611.1250893701333,None,611.1326524999458,None,611.1326524999458,None,613.559170300141,None,1,1,0.31090359995141625,613.559170300141,None,,001,2021_Mar_02_1856,GuessTheSound,2020.2.10,60.07658565504703,
Test/Foils/DialTone.wav,1,1,OLD,C,,,,,0,123,123,123,,,,,,,,,,,,,,,,,,,,,,,,,,,,,,,,,,,,,,,,,,,,,,,,,,,,,,,,,,,,,,,,,,,,,,,,,,,,,,613.8935831000563,None,615.4086037701461,None,615.4201986000407,None,615.4201986000407,None,617.8427528000902,None,1,1,0.467352099949494,617.8427528000902,None,,001,2021_Mar_02_1856,GuessTheSound,2020.2.10,60.07658565504703,
Initial/NoRepeat/Thunder_A.wav,1,1,OLD,C,,,,,0,124,124,124,,,,,,,,,,,,,,,,,,,,,,,,,,,,,,,,,,,,,,,,,,,,,,,,,,,,,,,,,,,,,,,,,,,,,,,,,,,,,,618.3256202000193,None,619.8248304700944,None,619.8321652999148,None,619.8321652999148,None,622.2592098999303,None,1,1,0.35028070001862943,622.2592098999303,None,,001,2021_Mar_02_1856,GuessTheSound,2020.2.10,60.07658565504703,
Test/Foils/Typing.wav,1,1,OLD,C,,,,,0,125,125,125,,,,,,,,,,,,,,,,,,,,,,,,,,,,,,,,,,,,,,,,,,,,,,,,,,,,,,,,,,,,,,,,,,,,,,,,,,,,,,622.6252590999939,None,624.124865170056,None,624.1333197001368,None,624.1333197001368,None,626.5590403000824,None,1,1,0.48956160014495254,626.5590403000824,None,,001,2021_Mar_02_1856,GuessTheSound,2020.2.10,60.07658565504703,
Snore_E.wav,2,2,SIMILAR,C,,,,,0,126,126,126,,,,,,,,,,,,,,,,,,,,,,,,,,,,,,,,,,,,,,,,,,,,,,,,,,,,,,,,,,,,,,,,,,,,,,,,,,,,,,627.0755517999642,None,628.6247913800645,None,628.6285168000031,None,628.6285168000031,None,631.059220999945,None,3,0,1.4040611998643726,631.059220999945,None,,001,2021_Mar_02_1856,GuessTheSound,2020.2.10,60.07658565504703,
Test/Foils/Heartbeat.wav,1,1,OLD,C,,,,,0,127,127,127,,,,,,,,,,,,,,,,,,,,,,,,,,,,,,,,,,,,,,,,,,,,,,,,,,,,,,,,,,,,,,,,,,,,,,,,,,,,,,632.4914857000113,None,634.0083092401269,None,634.0012890999205,None,634.0012890999205,None,636.4091400001198,None,1,1,0.4014850000385195,636.4091400001198,None,,001,2021_Mar_02_1856,GuessTheSound,2020.2.10,60.07658565504703,
