SoundFiles3,Correct,PracticeTrials.thisRepN,PracticeTrials.thisTrialN,PracticeTrials.thisN,PracticeTrials.thisIndex,trials.thisRepN,trials.thisTrialN,trials.thisN,trials.thisIndex,InstructionTxt.started,InstructionTxt.stopped,WelcomContinue.started,WelcomContinue.stopped,VolumeBeginTxt.started,VolumeBeginTxt.stopped,VolumeContinue.started,VolumeContinue.stopped,VolumeContinueKey.keys,VolumeContinueKey.rt,VolumeContinueKey.started,VolumeContinueKey.stopped,text.started,text.stopped,Music.started,Music.stopped,AdjustContinue.started,AdjustContinue.stopped,WelcomeTxt1.started,WelcomeTxt1.stopped,ContinueKey1.started,ContinueKey1.stopped,ContinueResp.keys,ContinueResp.rt,ContinueResp.started,ContinueResp.stopped,InstructionTxt2.started,InstructionTxt2.stopped,WelcomeContinue2.started,WelcomeContinue2.stopped,WelcomeContinueKey2.keys,WelcomeContinueKey2.rt,WelcomeContinueKey2.started,WelcomeContinueKey2.stopped,TrialNumber.started,TrialNumber.stopped,PracticeSound.started,PracticeSound.stopped,PracticeCross.started,PracticeCross.stopped,Practice_resp.keys,Practice_resp.corr,Practice_resp.rt,Practice_resp.started,Practice_resp.stopped,PracticeMssg.started,PracticeMssg.stopped,FeedbackCross.started,FeedbackCross.stopped,Continue.started,Continue.stopped,Options.started,Options.stopped,StartTxt.started,StartTxt.stopped,StartTast.keys,StartTast.rt,StartTast.started,StartTast.stopped,ContinueStart.started,ContinueStart.stopped,no1.started,no1.stopped,no_2.started,no_2.stopped,no_3.started,no_3.stopped,TargetSound.started,TargetSound.stopped,Cross.started,Cross.stopped,ItemNumber.started,ItemNumber.stopped,MSTQuestion.started,MSTQuestion.stopped,MSTResp.keys,MSTResp.corr,MSTResp.rt,MSTResp.started,MSTResp.stopped,participant,session,date,expName,psychopyVersion,frameRate,
,,,,,,,,,,13.74623500002781,None,13.74623500002781,None,14.736705500050448,None,14.736705500050448,None,space,0.5206700999988243,14.736705500050448,None,,,,,,,,,,,,,,,,,,,,,,,,,,,,,,,,,,,,,,,,,,,,,,,,,,,,,,,,,,,,,,,,,,,,,,001,2021_Jan_18_1016,GuessTheSound,2020.2.10,59.94981002072857,
,,,,,,,,,,,,,,,,,,,,,,15.341297700011637,None,15.333767240028829,None,15.341297700011637,None,15.839632200018968,None,15.839632200018968,None,space,4.20763000001898,15.839632200018968,None,,,,,,,,,,,,,,,,,,,,,,,,,,,,,,,,,,,,,,,,,,,,,,,,,,,,,,,,001,2021_Jan_18_1016,GuessTheSound,2020.2.10,59.94981002072857,
,,,,,,,,,,,,,,,,,,,,,,,,,,,,,,,,,,,,20.07158220000565,None,20.07158220000565,None,space,0.8982704000081867,20.07158220000565,None,,,,,,,,,,,,,,,,,,,,,,,,,,,,,,,,,,,,,,,,,,,,,,,,001,2021_Jan_18_1016,GuessTheSound,2020.2.10,59.94981002072857,
Practice/Seagull_A.wav,3,0,0,0,0,,,,,,,,,,,,,,,,,,,,,,,,,,,,,,,,,,,,,,,21.13195040001301,None,21.136472040065566,None,21.13195040001301,None,3,1,2.1305821999558248,23.446197400044184,None,23.446197400044184,None,23.446197400044184,None,23.446197400044184,None,23.446197400044184,None,,,,,,,,,,,,,,,,,,,,,,,,,,,,,001,2021_Jan_18_1016,GuessTheSound,2020.2.10,59.94981002072857,
,,,,,,,,,,,,,,,,,,,,,,,,,,,,,,,,,,,,,,,,,,,,,,,,,,,,,,,,,,,,,,,25.620232500019483,None,space,1.450517499994021,25.620232500019483,None,,,,,,,,,,,,,,,,,,,,,,,001,2021_Jan_18_1016,GuessTheSound,2020.2.10,59.94981002072857,
Initial/Doubled/Coin_A.wav,3,,,,,0,0,0,0,,,,,,,,,,,,,,,,,,,,,,,,,,,,,,,,,,,,,,,,,,,,,,,,,,,,,,,,,,,,25.620232500019483,None,29.150206900027115,None,28.149639100010972,29.150206900027115,27.156560500035994,28.166485699999612,30.16667504006764,None,30.17288450000342,31.283164900029078,30.17288450000342,31.283164900029078,31.30080840003211,None,3,1,5.613682799972594,31.30080840003211,None,,001,2021_Jan_18_1016,GuessTheSound,2020.2.10,59.94981002072857,
Test/Foils/Buzz.wav,1,,,,,0,1,1,1,,,,,,,,,,,,,,,,,,,,,,,,,,,,,,,,,,,,,,,,,,,,,,,,,,,,,,,,,,,,,,38.933104900002945,None,37.93308290001005,38.933104900002945,36.945678600051906,37.9502102000406,39.99974420003127,None,40.003726200025994,None,40.003726200025994,None,41.11738730000798,None,2,0,4.453518700029235,41.11738730000798,None,,001,2021_Jan_18_1016,GuessTheSound,2020.2.10,59.94981002072857,
Initial/NoRepeat/Droplet_B.wav,3,,,,,0,2,2,2,,,,,,,,,,,,,,,,,,,,,,,,,,,,,,,,,,,,,,,,,,,,,,,,,,,,,,,,,,,,,,47.583036500029266,None,46.583029800036456,47.583036500029266,45.59966470004292,46.60011190001387,48.615989280061335,None,48.615564300038386,49.73297280003317,48.615564300038386,49.73297280003317,49.7506088000373,None,3,1,1.486871799977962,49.7506088000373,None,,001,2021_Jan_18_1016,GuessTheSound,2020.2.10,59.94981002072857,
Initial/Doubled/Guitar_A.wav,3,,,,,0,3,3,3,,,,,,,,,,,,,,,,,,,,,,,,,,,,,,,,,,,,,,,,,,,,,,,,,,,,,,,,,,,,,,53.250190799997654,None,52.24965260003228,53.250190799997654,51.266210000030696,52.26620900002308,54.29937694004038,None,54.29934900003718,None,54.29934900003718,None,55.41986890003318,None,3,1,0.9953053999925032,55.41986890003318,None,,001,2021_Jan_18_1016,GuessTheSound,2020.2.10,59.94981002072857,
Initial/NoRepeat/Toilet_B.wav,1,,,,,0,4,4,4,,,,,,,,,,,,,,,,,,,,,,,,,,,,,,,,,,,,,,,,,,,,,,,,,,,,,,,,,,,,,,58.41892440000083,None,57.41858380002668,58.41892440000083,56.43795670004329,57.45220960001461,59.48258614002261,None,59.482984100002795,60.60025790001964,59.482984100002795,60.60025790001964,60.617244700028095,None,3,0,0.9561348999850452,60.617244700028095,None,,001,2021_Jan_18_1016,GuessTheSound,2020.2.10,59.94981002072857,
Dog_D.wav,2,,,,,0,5,5,5,,,,,,,,,,,,,,,,,,,,,,,,,,,,,,,,,,,,,,,,,,,,,,,,,,,,,,,,,,,,,,63.58510940003907,None,62.58289810002316,63.58510940003907,61.59968820004724,62.5994764000061,64.61712832002667,None,64.60970500000985,65.71856180002214,64.60970500000985,65.71856180002214,65.73555470001884,None,3,0,1.007826799992472,65.73555470001884,None,,001,2021_Jan_18_1016,GuessTheSound,2020.2.10,59.94981002072857,
Initial/Doubled/Clap_A.wav,1,,,,,0,6,6,6,,,,,,,,,,,,,,,,,,,,,,,,,,,,,,,,,,,,,,,,,,,,,,,,,,,,,,,,,,,,,,68.75179010001011,None,67.75391960004345,68.77639150002506,66.77135430002818,67.76875020004809,69.81618404001928,None,69.81659080000827,None,69.81659080000827,None,70.93368730001384,None,3,0,1.0752515000058338,70.93368730001384,None,,001,2021_Jan_18_1016,GuessTheSound,2020.2.10,59.94981002072857,
Test/Foils/PaperRip.wav,1,,,,,0,7,7,7,,,,,,,,,,,,,,,,,,,,,,,,,,,,,,,,,,,,,,,,,,,,,,,,,,,,,,,,,,,,,,74.01616090000607,None,73.01668070000596,74.01616090000607,72.03282220003894,73.03295360004995,75.06626014001667,None,75.06358519999776,None,75.06358519999776,None,76.16706350003369,None,3,0,0.9306395000312477,76.16706350003369,None,,001,2021_Jan_18_1016,GuessTheSound,2020.2.10,59.94981002072857,
Test/Foils/Wind_B.wav,1,,,,,0,8,8,8,,,,,,,,,,,,,,,,,,,,,,,,,,,,,,,,,,,,,,,,,,,,,,,,,,,,,,,,,,,,,,79.09953960002167,None,78.09961150004528,79.09953960002167,77.11861500004306,78.13281370000914,80.14921094003365,None,80.14936480001779,None,80.14936480001779,None,81.26686770003289,None,3,0,0.984319899987895,81.26686770003289,None,,001,2021_Jan_18_1016,GuessTheSound,2020.2.10,59.94981002072857,
Initial/NoRepeat/Helicopter_A.wav,1,,,,,0,9,9,9,,,,,,,,,,,,,,,,,,,,,,,,,,,,,,,,,,,,,,,,,,,,,,,,,,,,,,,,,,,,,,84.24923100002343,None,83.24934199999552,84.24923100002343,82.26865810004529,83.282649700006,85.28268978000851,None,85.28948710003169,None,85.28948710003169,None,86.40010800003074,None,3,0,1.315098899998702,86.40010800003074,None,,001,2021_Jan_18_1016,GuessTheSound,2020.2.10,59.94981002072857,
Initial/NoRepeat/Goat_B.wav,3,,,,,0,10,10,10,,,,,,,,,,,,,,,,,,,,,,,,,,,,,,,,,,,,,,,,,,,,,,,,,,,,,,,,,,,,,,89.71604650001973,None,88.71599240001524,89.71604650001973,87.73838420002721,88.7489462000085,90.78250280005159,None,90.77861810004106,None,90.77861810004106,None,91.90028880001046,None,3,1,1.374294799985364,91.90028880001046,None,,001,2021_Jan_18_1016,GuessTheSound,2020.2.10,59.94981002072857,
Coin_B.wav,2,,,,,0,11,11,11,,,,,,,,,,,,,,,,,,,,,,,,,,,,,,,,,,,,,,,,,,,,,,,,,,,,,,,,,,,,,,95.28262180002639,None,94.28272910002852,95.28262180002639,93.30005000001984,94.29962180001894,96.2992480200366,None,96.29847100004554,None,96.29847100004554,None,97.41682370001217,None,3,0,2.983990199980326,97.41682370001217,None,,001,2021_Jan_18_1016,GuessTheSound,2020.2.10,59.94981002072857,
Test/Foils/Bullfrog.wav,3,,,,,0,12,12,12,,,,,,,,,,,,,,,,,,,,,,,,,,,,,,,,,,,,,,,,,,,,,,,,,,,,,,,,,,,,,,102.41589689999819,None,101.41604270000244,102.41589689999819,100.43256460002158,101.43271370005095,103.46594994006445,None,103.46325640002033,None,103.46325640002033,None,104.58342100004666,None,3,1,1.5220955000258982,104.58342100004666,None,,001,2021_Jan_18_1016,GuessTheSound,2020.2.10,59.94981002072857,
Initial/NoRepeat/Thunder_A.wav,3,,,,,0,13,13,13,,,,,,,,,,,,,,,,,,,,,,,,,,,,,,,,,,,,,,,,,,,,,,,,,,,,,,,,,,,,,,108.11576430004789,None,107.11580369999865,108.11576430004789,106.13243500003591,107.13244290003786,109.14922408004058,None,109.16016320005292,None,109.16016320005292,None,110.28341180004645,None,3,1,2.1593116000294685,110.28341180004645,None,,001,2021_Jan_18_1016,GuessTheSound,2020.2.10,59.94981002072857,
Initial/NoRepeat/Faucet_A.wav,3,,,,,0,14,14,14,,,,,,,,,,,,,,,,,,,,,,,,,,,,,,,,,,,,,,,,,,,,,,,,,,,,,,,,,,,,,,114.44904720003251,None,113.44932450004853,114.44904720003251,112.46686159999808,113.4656189000234,115.48242218001978,None,115.48497970000608,None,115.48497970000608,None,116.59980030002771,None,1,0,1.0461662999587134,116.59980030002771,None,,001,2021_Jan_18_1016,GuessTheSound,2020.2.10,59.94981002072857,
Initial/Repeat/Phone_A.wav,3,,,,,0,15,15,15,,,,,,,,,,,,,,,,,,,,,,,,,,,,,,,,,,,,,,,,,,,,,,,,,,,,,,,,,,,,,,119.64903020003112,None,118.64927560003707,119.64903020003112,117.66645110002719,118.66594510001596,120.6823756800266,None,120.69035780004924,121.79918510001153,120.69035780004924,121.79918510001153,121.81645760004176,None,3,1,1.0419703000225127,121.81645760004176,None,,001,2021_Jan_18_1016,GuessTheSound,2020.2.10,59.94981002072857,
Test/Foils/PaperRip.wav,1,,,,,0,16,16,16,,,,,,,,,,,,,,,,,,,,,,,,,,,,,,,,,,,,,,,,,,,,,,,,,,,,,,,,,,,,,,124.86576050001895,None,123.86575350002386,124.86576050001895,122.88324930000817,123.88230789999943,125.86567596005042,None,125.87703450000845,None,125.87703450000845,None,126.96645940002054,None,1,1,1.2693811999633908,126.96645940002054,None,,001,2021_Jan_18_1016,GuessTheSound,2020.2.10,59.94981002072857,
Initial/Doubled/Growl_A.wav,3,,,,,0,17,17,17,,,,,,,,,,,,,,,,,,,,,,,,,,,,,,,,,,,,,,,,,,,,,,,,,,,,,,,,,,,,,,130.2491196000483,None,129.24884080002084,130.2491196000483,128.26569310005289,129.2657184000127,131.2821019800147,None,131.29210710001644,None,131.29210710001644,None,132.41661470005056,None,3,1,1.8378622999880463,132.41661470005056,None,,001,2021_Jan_18_1016,GuessTheSound,2020.2.10,59.94981002072857,
Initial/Repeat/IceDrop.wav,3,,,,,0,18,18,18,,,,,,,,,,,,,,,,,,,,,,,,,,,,,,,,,,,,,,,,,,,,,,,,,,,,,,,,,,,,,,136.26561810000567,None,135.26568310003495,136.26561810000567,134.28209470002912,135.2823312000255,137.31558914002963,None,137.32248900004197,138.43206770002143,137.32248900004197,138.43206770002143,138.44965050002793,None,3,1,0.8982156999991275,138.44965050002793,None,,001,2021_Jan_18_1016,GuessTheSound,2020.2.10,59.94981002072857,
Goat_A.wav,2,,,,,0,19,19,19,,,,,,,,,,,,,,,,,,,,,,,,,,,,,,,,,,,,,,,,,,,,,,,,,,,,,,,,,,,,,,141.34880850004265,None,140.3490821000305,141.34880850004265,139.37002500001108,140.38211170001887,142.36529122000792,None,142.37075630004983,143.4821365000098,142.37075630004983,143.4821365000098,143.49989430001006,None,1,0,1.0042724999948405,143.49989430001006,None,,001,2021_Jan_18_1016,GuessTheSound,2020.2.10,59.94981002072857,
Coin_C.wav,2,,,,,0,20,20,20,,,,,,,,,,,,,,,,,,,,,,,,,,,,,,,,,,,,,,,,,,,,,,,,,,,,,,,,,,,,,,146.51532830001088,None,145.51552630000515,146.51532830001088,144.5320766000077,145.532054100011,147.53221432002027,None,147.54287420003675,None,147.54287420003675,None,148.6663742000237,None,3,0,1.4648898000014015,148.6663742000237,None,,001,2021_Jan_18_1016,GuessTheSound,2020.2.10,59.94981002072857,
Initial/Repeat/Whistle_A.wav,3,,,,,0,21,21,21,,,,,,,,,,,,,,,,,,,,,,,,,,,,,,,,,,,,,,,,,,,,,,,,,,,,,,,,,,,,,,152.13198040000862,None,151.1319949000026,152.13198040000862,150.14980190002825,151.16544190002605,153.18055678003,None,153.18957099999534,None,153.18957099999534,None,154.18129580002278,None,3,1,0.909667800005991,154.18129580002278,None,,001,2021_Jan_18_1016,GuessTheSound,2020.2.10,59.94981002072857,
Initial/NoRepeat/Puff_A.wav,3,,,,,0,22,22,22,,,,,,,,,,,,,,,,,,,,,,,,,,,,,,,,,,,,,,,,,,,,,,,,,,,,,,,,,,,,,,157.09777410002425,None,156.09746100002667,157.09777410002425,155.1140023000189,156.1142931000213,158.1311069800402,None,158.1345232000458,None,158.1345232000458,None,159.24957990000257,None,3,1,0.9933105999953113,159.24957990000257,None,,001,2021_Jan_18_1016,GuessTheSound,2020.2.10,59.94981002072857,
Test/Foils/Bullfrog.wav,1,,,,,0,23,23,23,,,,,,,,,,,,,,,,,,,,,,,,,,,,,,,,,,,,,,,,,,,,,,,,,,,,,,,,,,,,,,162.24856120004551,None,161.24853660003282,162.24856120004551,160.26575680001406,161.26538019999862,163.24863176003564,None,163.26174560002983,None,163.26174560002983,None,164.382820800005,None,1,1,0.8416505000204779,164.382820800005,None,,001,2021_Jan_18_1016,GuessTheSound,2020.2.10,59.94981002072857,
Phone_C.wav,2,,,,,0,24,24,24,,,,,,,,,,,,,,,,,,,,,,,,,,,,,,,,,,,,,,,,,,,,,,,,,,,,,,,,,,,,,,167.2320017000311,None,166.23198860004777,167.2320017000311,165.25053900002968,166.2652320000343,168.24848882002988,None,168.2482037000009,169.3652843000018,168.2482037000009,169.3652843000018,169.38289120001718,None,2,1,1.3538628000533208,169.38289120001718,None,,001,2021_Jan_18_1016,GuessTheSound,2020.2.10,59.94981002072857,
,,,,,,,,,,,,,,,,,,,,,,,,,,,,,,,,,,,,,,,,,,,,,,,,,,,,,,,,,,,,,,,,,,,,,,,172.74859730002936,None,171.74860410002293,172.74859730002936,170.76505570003064,171.7651734999963,,,,,,,,,,,,,,,,,,,,
