SoundFile,Correct,Correct2,Type,Trial,PracticeTrials.thisRepN,PracticeTrials.thisTrialN,PracticeTrials.thisN,PracticeTrials.thisIndex,trials.thisRepN,trials.thisTrialN,trials.thisN,trials.thisIndex,InstructionTxt.started,InstructionTxt.stopped,WelcomContinue.started,WelcomContinue.stopped,VolumeBeginTxt.started,VolumeBeginTxt.stopped,VolumeContinueKey.keys,VolumeContinueKey.rt,VolumeContinueKey.started,VolumeContinueKey.stopped,text.started,text.stopped,Music.started,Music.stopped,AdjustContinue.started,AdjustContinue.stopped,HeadphoneCheckBeing.started,HeadphoneCheckBeing.stopped,HeadphoneContinue.started,HeadphoneContinue.stopped,HeadphoneContinueKey.keys,HeadphoneContinueKey.rt,HeadphoneContinueKey.started,HeadphoneContinueKey.stopped,WelcomeTxt1.started,WelcomeTxt1.stopped,ContinueKey1.started,ContinueKey1.stopped,ContinueResp.keys,ContinueResp.rt,ContinueResp.started,ContinueResp.stopped,Welcome2Txt.started,Welcome2Txt.stopped,Wel2ContinueKey.keys,Wel2ContinueKey.rt,Wel2ContinueKey.started,Wel2ContinueKey.stopped,Continue2.started,Continue2.stopped,InstructionTxt2.started,InstructionTxt2.stopped,WelcomeContinue2.started,WelcomeContinue2.stopped,WelcomeContinueKey2.keys,WelcomeContinueKey2.rt,WelcomeContinueKey2.started,WelcomeContinueKey2.stopped,TrialNumber.started,TrialNumber.stopped,PracticeSound.started,PracticeSound.stopped,PracticeCross.started,PracticeCross.stopped,Practice_resp.keys,Practice_resp.corr,Practice_resp.rt,Practice_resp.started,Practice_resp.stopped,PracticeMssg.started,PracticeMssg.stopped,FeedbackCross.started,FeedbackCross.stopped,Continue.started,Continue.stopped,Options.started,Options.stopped,FeedbackMssg.started,FeedbackMssg.stopped,StartTxt.started,StartTxt.stopped,StartTast.keys,StartTast.rt,StartTast.started,StartTast.stopped,ContinueStart.started,ContinueStart.stopped,no_3.started,no_3.stopped,TargetSound.started,TargetSound.stopped,Cross.started,Cross.stopped,ItemNumber.started,ItemNumber.stopped,MSTQuestion.started,MSTQuestion.stopped,MSTResp.keys,MSTResp.corr,MSTResp.rt,MSTResp.started,MSTResp.stopped,ThankyouMssg.started,ThankyouMssg.stopped,CompletionCode.started,CompletionCode.stopped,ExitTxt.started,ExitTxt.stopped,ExitKey.keys,ExitKey.rt,ExitKey.started,ExitKey.stopped,CodeTxt.started,CodeTxt.stopped,participant,session,date,expName,psychopyVersion,frameRate,
,,,,,,,,,,,,,8.3406726999674,None,8.3406726999674,None,9.449186399811879,None,space,0.4497402000706643,9.449186399811879,None,,,,,,,,,,,,,,,,,,,,,,,,,,,,,,,,,,,,,,,,,,,,,,,,,,,,,,,,,,,,,,,,,,,,,,,,,,,,,,,,,,,,,,,,,,,,,,,,001,2021_Feb_28_1139,GuessTheSound,2020.2.10,59.99170915250401,
,,,,,,,,,,,,,,,,,,,,,,,9.959590199869126,None,9.964314960036427,None,9.959590199869126,None,10.630814699921757,None,10.630814699921757,None,space,0.5781857001129538,10.630814699921757,None,,,,,,,,,,,,,,,,,,,,,,,,,,,,,,,,,,,,,,,,,,,,,,,,,,,,,,,,,,,,,,,,,,,,,,,,,,,,,,,,,,001,2021_Feb_28_1139,GuessTheSound,2020.2.10,59.99170915250401,
,,,,,,,,,,,,,,,,,,,,,,,,,,,,,,,,,,,,,11.23598699993454,None,11.23598699993454,None,space,0.41897940007038414,11.23598699993454,None,,,,,,,,,,,,,,,,,,,,,,,,,,,,,,,,,,,,,,,,,,,,,,,,,,,,,,,,,,,,,,,,,,,,,,,,,,001,2021_Feb_28_1139,GuessTheSound,2020.2.10,59.99170915250401,
,,,,,,,,,,,,,,,,,,,,,,,,,,,,,,,,,,,,,,,,,,,,,11.682739999843761,None,space,0.42371209990233183,11.682739999843761,None,,,,,,,,,,,,,,,,,,,,,,,,,,,,,,,,,,,,,,,,,,,,,,,,,,,,,,,,,,,,,,,,,,,,001,2021_Feb_28_1139,GuessTheSound,2020.2.10,59.99170915250401,
,,,,,,,,,,,,,,,,,,,,,,,,,,,,,,,,,,,,,,,,,,,,,,,,,,,11.682739999843761,None,12.135241899872199,None,12.135241899872199,None,space,0.39418779988773167,12.135241899872199,None,,,,,,,,,,,,,,,,,,,,,,,,,,,,,,,,,,,,,,,,,,,,,,,,,,,,,,,,,,001,2021_Feb_28_1139,GuessTheSound,2020.2.10,59.99170915250401,
Practice/Seagull_A.wav,2,3,NEW,Practice,0,0,0,0,,,,,,,,,,,,,,,,,,,,,,,,,,,,,,,,,,,,,,,,,,,,,,,,,,,,,12.744440299924463,None,12.746937269880435,None,12.744440299924463,None,3,1,2.5342244999483228,15.042002499802038,None,15.042002499802038,None,15.042002499802038,None,15.042002499802038,None,15.042002499802038,None,17.61075619980693,None,,,,,,,,,,,,,,,,,,,,,,,,,,,,,,,,,,,,,001,2021_Feb_28_1139,GuessTheSound,2020.2.10,59.99170915250401,
Practice/Skid_B.wav,2,3,NEW,Practice,0,1,1,1,,,,,,,,,,,,,,,,,,,,,,,,,,,,,,,,,,,,,,,,,,,,,,,,,,,,,18.628367699915543,20.72993339993991,18.630089979898187,None,18.628367699915543,20.72993339993991,3,1,0.7486891997978091,20.746965599944815,None,20.746965599944815,None,20.746965599944815,None,20.746965599944815,None,20.746965599944815,None,21.51768709998578,None,,,,,,,,,,,,,,,,,,,,,,,,,,,,,,,,,,,,,001,2021_Feb_28_1139,GuessTheSound,2020.2.10,59.99170915250401,
Practice/Seagull_A.wav,1,1,OLD,Practice,0,2,2,2,,,,,,,,,,,,,,,,,,,,,,,,,,,,,,,,,,,,,,,,,,,,,,,,,,,,,22.54558469983749,None,22.54682917990722,None,22.54558469983749,None,1,1,1.6186740999110043,24.850505799986422,None,24.850505799986422,None,24.850505799986422,None,24.850505799986422,None,24.850505799986422,None,26.49646699987352,None,,,,,,,,,,,,,,,,,,,,,,,,,,,,,,,,,,,,,001,2021_Feb_28_1139,GuessTheSound,2020.2.10,59.99170915250401,
Practice/Gargle_A.wav,2,3,NEW,Practice,0,3,3,3,,,,,,,,,,,,,,,,,,,,,,,,,,,,,,,,,,,,,,,,,,,,,,,,,,,,,27.52316159987822,None,27.51316048000008,None,27.52316159987822,None,3,1,0.417719499906525,29.823330599814653,None,29.823330599814653,None,29.823330599814653,None,29.823330599814653,None,29.823330599814653,None,30.26433189981617,None,,,,,,,,,,,,,,,,,,,,,,,,,,,,,,,,,,,,,001,2021_Feb_28_1139,GuessTheSound,2020.2.10,59.99170915250401,
Practice/Gargle_B.wav,2,2,SIMILAR,Practice,0,4,4,4,,,,,,,,,,,,,,,,,,,,,,,,,,,,,,,,,,,,,,,,,,,,,,,,,,,,,31.305477799847722,None,31.29678977984004,None,31.305477799847722,None,2,1,0.43431759998202324,33.37709690001793,None,33.37709690001793,None,33.37709690001793,None,33.37709690001793,None,33.37709690001793,None,33.83076749998145,None,,,,,,,,,,,,,,,,,,,,,,,,,,,,,,,,,,,,,001,2021_Feb_28_1139,GuessTheSound,2020.2.10,59.99170915250401,
,,,,,,,,,,,,,,,,,,,,,,,,,,,,,,,,,,,,,,,,,,,,,,,,,,,,,,,,,,,,,,,,,,,,,,,,,,,,,,,,,,34.83127039996907,None,space,2.124620500020683,34.83127039996907,None,,,,,,,,,,,,,,,,,,,,,,,,,,,,,,,001,2021_Feb_28_1139,GuessTheSound,2020.2.10,59.99170915250401,
Snore_C.wav,2,2,SIMILAR,B,,,,,0,0,0,0,,,,,,,,,,,,,,,,,,,,,,,,,,,,,,,,,,,,,,,,,,,,,,,,,,,,,,,,,,,,,,,,,,,,,,,,,,,,34.83127039996907,None,37.11592619982548,None,38.51292947987095,None,38.516669399803504,None,38.516669399803504,None,41.414864499820396,None,3,0,0.704420099966228,41.414864499820396,None,,,,,,,,,,,,,,001,2021_Feb_28_1139,GuessTheSound,2020.2.10,59.99170915250401,
CarStart_F.wav,2,3,NEW,B,,,,,0,1,1,1,,,,,,,,,,,,,,,,,,,,,,,,,,,,,,,,,,,,,,,,,,,,,,,,,,,,,,,,,,,,,,,,,,,,,,,,,,,,,,42.14619789994322,None,43.64628688993398,None,43.65582469990477,None,43.65582469990477,None,46.147204199805856,None,3,1,0.4469708998221904,46.147204199805856,None,,,,,,,,,,,,,,001,2021_Feb_28_1139,GuessTheSound,2020.2.10,59.99170915250401,
Goat_C.wav,2,2,SIMILAR,B,,,,,0,2,2,2,,,,,,,,,,,,,,,,,,,,,,,,,,,,,,,,,,,,,,,,,,,,,,,,,,,,,,,,,,,,,,,,,,,,,,,,,,,,,,46.61447439994663,None,48.14656067993492,None,48.14800059981644,None,48.14800059981644,None,49.96422469988465,None,2,1,1.5194170998875052,49.96422469988465,None,,,,,,,,,,,,,,001,2021_Feb_28_1139,GuessTheSound,2020.2.10,59.99170915250401,
Coin_E.wav,2,2,SIMILAR,B,,,,,0,3,3,3,,,,,,,,,,,,,,,,,,,,,,,,,,,,,,,,,,,,,,,,,,,,,,,,,,,,,,,,,,,,,,,,,,,,,,,,,,,,,,51.5143667999655,None,53.0462305800058,None,53.045460999943316,None,53.045460999943316,None,55.06398390000686,None,3,0,0.46318540000356734,55.06398390000686,None,,,,,,,,,,,,,,001,2021_Feb_28_1139,GuessTheSound,2020.2.10,59.99170915250401,
Initial/Repeat/Howl.wav,1,1,OLD,B,,,,,0,4,4,4,,,,,,,,,,,,,,,,,,,,,,,,,,,,,,,,,,,,,,,,,,,,,,,,,,,,,,,,,,,,,,,,,,,,,,,,,,,,,,55.546809799969196,None,57.06312917992473,None,57.05651679984294,None,57.05651679984294,None,59.81394589995034,None,3,0,0.40364659996703267,59.81394589995034,None,,,,,,,,,,,,,,001,2021_Feb_28_1139,GuessTheSound,2020.2.10,59.99170915250401,
Initial/Repeat/Airplane_B.wav,1,1,OLD,B,,,,,0,5,5,5,,,,,,,,,,,,,,,,,,,,,,,,,,,,,,,,,,,,,,,,,,,,,,,,,,,,,,,,,,,,,,,,,,,,,,,,,,,,,,60.24637379986234,None,61.762820079969245,None,61.76403299998492,None,61.76403299998492,None,64.38042890001088,None,3,0,0.21379689988680184,64.38042890001088,None,,,,,,,,,,,,,,001,2021_Feb_28_1139,GuessTheSound,2020.2.10,59.99170915250401,
Initial/NoRepeat/Mosquito_B.wav,1,1,OLD,B,,,,,0,6,6,6,,,,,,,,,,,,,,,,,,,,,,,,,,,,,,,,,,,,,,,,,,,,,,,,,,,,,,,,,,,,,,,,,,,,,,,,,,,,,,64.61478720000014,None,66.14559348002075,None,66.14146619988605,None,66.14146619988605,None,68.29726649983786,None,3,0,0.2999660999048501,68.29726649983786,None,,,,,,,,,,,,,,001,2021_Feb_28_1139,GuessTheSound,2020.2.10,59.99170915250401,
Initial/NoRepeat/Droplet_B.wav,2,3,NEW,B,,,,,0,7,7,7,,,,,,,,,,,,,,,,,,,,,,,,,,,,,,,,,,,,,,,,,,,,,,,,,,,,,,,,,,,,,,,,,,,,,,,,,,,,,,68.61422729981132,None,70.16278006981592,None,70.15633689984679,None,70.15633689984679,None,72.31349029997364,None,3,1,0.5650548001285642,72.31349029997364,None,,,,,,,,,,,,,,001,2021_Feb_28_1139,GuessTheSound,2020.2.10,59.99170915250401,
Test/Foils/Donkey.wav,1,1,OLD,B,,,,,0,8,8,8,,,,,,,,,,,,,,,,,,,,,,,,,,,,,,,,,,,,,,,,,,,,,,,,,,,,,,,,,,,,,,,,,,,,,,,,,,,,,,72.89747119997628,None,74.42969637997447,None,74.42586730001494,None,74.42586730001494,None,77.13016649987549,None,1,1,0.18435299978591502,77.13016649987549,None,,,,,,,,,,,,,,001,2021_Feb_28_1139,GuessTheSound,2020.2.10,59.99170915250401,
Test/Lures/Guitar_B.wav,2,3,NEW,B,,,,,0,9,9,9,,,,,,,,,,,,,,,,,,,,,,,,,,,,,,,,,,,,,,,,,,,,,,,,,,,,,,,,,,,,,,,,,,,,,,,,,,,,,,77.33377459994517,None,78.8960383598227,None,78.89168579992838,None,78.89168579992838,None,81.21362049994059,None,3,1,0.4880073999520391,81.21362049994059,None,,,,,,,,,,,,,,001,2021_Feb_28_1139,GuessTheSound,2020.2.10,59.99170915250401,
Initial/Repeat/Bagpipe.wav,1,1,OLD,B,,,,,0,10,10,10,,,,,,,,,,,,,,,,,,,,,,,,,,,,,,,,,,,,,,,,,,,,,,,,,,,,,,,,,,,,,,,,,,,,,,,,,,,,,,81.72924279980361,None,83.24610077990218,None,83.24124070000835,None,83.24124070000835,None,85.6136612999253,None,1,1,0.20922920014709234,85.6136612999253,None,,,,,,,,,,,,,,001,2021_Feb_28_1139,GuessTheSound,2020.2.10,59.99170915250401,
Initial/NoRepeat/Hammer_A.wav,2,3,NEW,B,,,,,0,11,11,11,,,,,,,,,,,,,,,,,,,,,,,,,,,,,,,,,,,,,,,,,,,,,,,,,,,,,,,,,,,,,,,,,,,,,,,,,,,,,,85.84697469999082,None,87.36253238983917,None,87.37096959981136,None,87.37096959981136,None,89.8470815999899,None,1,0,0.7751076000276953,89.8470815999899,None,,,,,,,,,,,,,,001,2021_Feb_28_1139,GuessTheSound,2020.2.10,59.99170915250401,
Initial/NoRepeat/Helicopter_A.wav,1,1,OLD,B,,,,,0,12,12,12,,,,,,,,,,,,,,,,,,,,,,,,,,,,,,,,,,,,,,,,,,,,,,,,,,,,,,,,,,,,,,,,,,,,,,,,,,,,,,90.64572339993902,None,92.16249617985449,None,92.15559350000694,None,92.15559350000694,None,94.6136219999753,None,3,0,0.3872896998655051,94.6136219999753,None,,,,,,,,,,,,,,001,2021_Feb_28_1139,GuessTheSound,2020.2.10,59.99170915250401,
Test/Foils/Camera.wav,2,3,NEW,B,,,,,0,13,13,13,,,,,,,,,,,,,,,,,,,,,,,,,,,,,,,,,,,,,,,,,,,,,,,,,,,,,,,,,,,,,,,,,,,,,,,,,,,,,,95.02989539992996,None,96.5625255699968,None,96.5637112997938,None,96.5637112997938,None,97.52952689980157,None,3,1,1.0796858000103384,97.52952689980157,None,,,,,,,,,,,,,,001,2021_Feb_28_1139,GuessTheSound,2020.2.10,59.99170915250401,
Test/Foils/Steam.wav,2,3,NEW,B,,,,,0,14,14,14,,,,,,,,,,,,,,,,,,,,,,,,,,,,,,,,,,,,,,,,,,,,,,,,,,,,,,,,,,,,,,,,,,,,,,,,,,,,,,98.6315565998666,None,100.17912017002236,None,100.18676529987715,None,100.18676529987715,None,102.71354099991731,None,3,1,0.49684520019218326,102.71354099991731,None,,,,,,,,,,,,,,001,2021_Feb_28_1139,GuessTheSound,2020.2.10,59.99170915250401,
Test/Foils/Horse.wav,1,1,OLD,B,,,,,0,15,15,15,,,,,,,,,,,,,,,,,,,,,,,,,,,,,,,,,,,,,,,,,,,,,,,,,,,,,,,,,,,,,,,,,,,,,,,,,,,,,,103.23207239992917,None,104.7457957898965,None,104.75366319995373,None,104.75366319995373,None,106.94695749995299,None,1,1,0.7035563001409173,106.94695749995299,None,,,,,,,,,,,,,,001,2021_Feb_28_1139,GuessTheSound,2020.2.10,59.99170915250401,
Elephant_C.wav,2,3,NEW,B,,,,,0,16,16,16,,,,,,,,,,,,,,,,,,,,,,,,,,,,,,,,,,,,,,,,,,,,,,,,,,,,,,,,,,,,,,,,,,,,,,,,,,,,,,107.67996979993768,None,109.19601588002405,None,109.2015764999669,None,109.2015764999669,None,112.07943289983086,None,3,1,0.8721503999549896,112.07943289983086,None,,,,,,,,,,,,,,001,2021_Feb_28_1139,GuessTheSound,2020.2.10,59.99170915250401,
Initial/Repeat/Printer.wav,1,1,OLD,B,,,,,0,17,17,17,,,,,,,,,,,,,,,,,,,,,,,,,,,,,,,,,,,,,,,,,,,,,,,,,,,,,,,,,,,,,,,,,,,,,,,,,,,,,,112.97844869992696,None,114.47842869001906,None,114.4814210999757,None,114.4814210999757,None,117.24588209996,None,1,1,0.2432973999530077,117.24588209996,None,,,,,,,,,,,,,,001,2021_Feb_28_1139,GuessTheSound,2020.2.10,59.99170915250401,
Crow_A.wav,2,2,SIMILAR,B,,,,,0,18,18,18,,,,,,,,,,,,,,,,,,,,,,,,,,,,,,,,,,,,,,,,,,,,,,,,,,,,,,,,,,,,,,,,,,,,,,,,,,,,,,117.51175069995224,None,119.01259318997617,None,119.02117309998721,None,119.02117309998721,None,120.86317249992862,None,3,0,0.6068306001834571,120.86317249992862,None,,,,,,,,,,,,,,001,2021_Feb_28_1139,GuessTheSound,2020.2.10,59.99170915250401,
Initial/Doubled/Bubbles_A.wav,2,3,NEW,B,,,,,0,19,19,19,,,,,,,,,,,,,,,,,,,,,,,,,,,,,,,,,,,,,,,,,,,,,,,,,,,,,,,,,,,,,,,,,,,,,,,,,,,,,,121.49545609997585,None,123.01218787981196,None,123.016480299877,None,123.016480299877,None,125.42985909990966,None,3,1,0.37308380007743835,125.42985909990966,None,,,,,,,,,,,,,,001,2021_Feb_28_1139,GuessTheSound,2020.2.10,59.99170915250401,
Chomp_E.wav,2,2,SIMILAR,B,,,,,0,20,20,20,,,,,,,,,,,,,,,,,,,,,,,,,,,,,,,,,,,,,,,,,,,,,,,,,,,,,,,,,,,,,,,,,,,,,,,,,,,,,,125.82880629994906,None,127.34550817990674,None,127.34648670000024,None,127.34648670000024,None,129.54670029995032,None,2,1,0.5338347000069916,129.54670029995032,None,,,,,,,,,,,,,,001,2021_Feb_28_1139,GuessTheSound,2020.2.10,59.99170915250401,
Test/Foils/Airhorn.wav,2,3,NEW,B,,,,,0,21,21,21,,,,,,,,,,,,,,,,,,,,,,,,,,,,,,,,,,,,,,,,,,,,,,,,,,,,,,,,,,,,,,,,,,,,,,,,,,,,,,130.0968952998519,None,131.64573197003918,None,131.64820559998043,None,131.64820559998043,None,134.21285369992256,None,3,1,0.4735930999740958,134.21285369992256,None,,,,,,,,,,,,,,001,2021_Feb_28_1139,GuessTheSound,2020.2.10,59.99170915250401,
Initial/Doubled/Writing_A.wav,2,3,NEW,B,,,,,0,22,22,22,,,,,,,,,,,,,,,,,,,,,,,,,,,,,,,,,,,,,,,,,,,,,,,,,,,,,,,,,,,,,,,,,,,,,,,,,,,,,,134.71413079998456,None,136.24550398001446,None,136.24264029995538,None,136.24264029995538,None,138.94650329998694,None,3,1,0.3971818999852985,138.94650329998694,None,,,,,,,,,,,,,,001,2021_Feb_28_1139,GuessTheSound,2020.2.10,59.99170915250401,
Initial/Doubled/Cuckoo_A.wav,2,3,NEW,B,,,,,0,23,23,23,,,,,,,,,,,,,,,,,,,,,,,,,,,,,,,,,,,,,,,,,,,,,,,,,,,,,,,,,,,,,,,,,,,,,,,,,,,,,,139.36382519989274,None,140.89537557987495,None,140.9037394998595,None,140.9037394998595,None,143.39632149995305,None,3,1,0.3382032001391053,143.39632149995305,None,,,,,,,,,,,,,,001,2021_Feb_28_1139,GuessTheSound,2020.2.10,59.99170915250401,
Initial/Repeat/IceDrop.wav,2,3,NEW,B,,,,,0,24,24,24,,,,,,,,,,,,,,,,,,,,,,,,,,,,,,,,,,,,,,,,,,,,,,,,,,,,,,,,,,,,,,,,,,,,,,,,,,,,,,143.76281819981523,None,145.2786896799691,None,145.28714049980044,None,145.28714049980044,None,148.0462026000023,None,3,1,0.27011990011669695,148.0462026000023,None,,,,,,,,,,,,,,001,2021_Feb_28_1139,GuessTheSound,2020.2.10,59.99170915250401,
CarStart_E.wav,2,2,SIMILAR,B,,,,,0,25,25,25,,,,,,,,,,,,,,,,,,,,,,,,,,,,,,,,,,,,,,,,,,,,,,,,,,,,,,,,,,,,,,,,,,,,,,,,,,,,,,148.34522799984552,None,149.87858887000473,None,149.88452770002186,None,149.88452770002186,None,152.3793159998022,None,2,1,3.2712424998171628,152.3793159998022,None,,,,,,,,,,,,,,001,2021_Feb_28_1139,GuessTheSound,2020.2.10,59.99170915250401,
Baby_F.wav,2,3,NEW,B,,,,,0,26,26,26,,,,,,,,,,,,,,,,,,,,,,,,,,,,,,,,,,,,,,,,,,,,,,,,,,,,,,,,,,,,,,,,,,,,,,,,,,,,,,155.68044249992818,None,157.2117744798772,None,157.20560549991205,None,157.20560549991205,None,159.34611149993725,None,3,1,1.5354217002168298,159.34611149993725,None,,,,,,,,,,,,,,001,2021_Feb_28_1139,GuessTheSound,2020.2.10,59.99170915250401,
Initial/NoRepeat/Puff_A.wav,2,3,NEW,B,,,,,0,27,27,27,,,,,,,,,,,,,,,,,,,,,,,,,,,,,,,,,,,,,,,,,,,,,,,,,,,,,,,,,,,,,,,,,,,,,,,,,,,,,,160.89831630000845,None,162.41181228987406,None,162.42108719982207,None,162.42108719982207,None,164.1128934000153,None,3,1,0.3274668001104146,164.1128934000153,None,,,,,,,,,,,,,,001,2021_Feb_28_1139,GuessTheSound,2020.2.10,59.99170915250401,
Initial/NoRepeat/Droplet_B.wav,1,1,OLD,B,,,,,0,28,28,28,,,,,,,,,,,,,,,,,,,,,,,,,,,,,,,,,,,,,,,,,,,,,,,,,,,,,,,,,,,,,,,,,,,,,,,,,,,,,,164.46291889995337,None,165.9786781899398,None,165.98841039999388,None,165.98841039999388,None,168.14607569994405,None,1,1,0.34116950002498925,168.14607569994405,None,,,,,,,,,,,,,,001,2021_Feb_28_1139,GuessTheSound,2020.2.10,59.99170915250401,
Test/Lures/Guitar_B.wav,1,1,OLD,B,,,,,0,29,29,29,,,,,,,,,,,,,,,,,,,,,,,,,,,,,,,,,,,,,,,,,,,,,,,,,,,,,,,,,,,,,,,,,,,,,,,,,,,,,,168.51355809997767,None,170.02862938984762,None,170.0353768998757,None,170.0353768998757,None,172.36284810001962,None,3,0,0.33143629995174706,172.36284810001962,None,,,,,,,,,,,,,,001,2021_Feb_28_1139,GuessTheSound,2020.2.10,59.99170915250401,
Initial/Repeat/PaperRip.wav,2,3,NEW,B,,,,,0,30,30,30,,,,,,,,,,,,,,,,,,,,,,,,,,,,,,,,,,,,,,,,,,,,,,,,,,,,,,,,,,,,,,,,,,,,,,,,,,,,,,172.71412689983845,None,174.24530708002857,None,174.2444919999689,None,174.2444919999689,None,175.84591069980524,None,3,1,0.39766920008696616,175.84591069980524,None,,,,,,,,,,,,,,001,2021_Feb_28_1139,GuessTheSound,2020.2.10,59.99170915250401,
Initial/NoRepeat/Mosquito_B.wav,1,1,OLD,B,,,,,0,31,31,31,,,,,,,,,,,,,,,,,,,,,,,,,,,,,,,,,,,,,,,,,,,,,,,,,,,,,,,,,,,,,,,,,,,,,,,,,,,,,,176.2649083000142,None,177.7784400899196,None,177.7871762998402,None,177.7871762998402,None,179.92753499979153,None,1,1,0.3621691002044827,179.92753499979153,None,,,,,,,,,,,,,,001,2021_Feb_28_1139,GuessTheSound,2020.2.10,59.99170915250401,
Initial/Repeat/Trumpet_B.wav,2,3,NEW,B,,,,,0,32,32,32,,,,,,,,,,,,,,,,,,,,,,,,,,,,,,,,,,,,,,,,,,,,,,,,,,,,,,,,,,,,,,,,,,,,,,,,,,,,,,180.31218829983845,None,181.8434876800049,None,181.83786299987696,None,181.83786299987696,None,184.12812259979546,None,3,1,0.35105729987844825,184.12812259979546,None,,,,,,,,,,,,,,001,2021_Feb_28_1139,GuessTheSound,2020.2.10,59.99170915250401,
Test/Foils/Bullfrog.wav,2,3,NEW,B,,,,,0,33,33,33,,,,,,,,,,,,,,,,,,,,,,,,,,,,,,,,,,,,,,,,,,,,,,,,,,,,,,,,,,,,,,,,,,,,,,,,,,,,,,184.49636160000227,None,186.04471747002097,None,186.0460812000092,None,186.0460812000092,None,188.92903539980762,None,3,1,0.7500567000824958,188.92903539980762,None,,,,,,,,,,,,,,001,2021_Feb_28_1139,GuessTheSound,2020.2.10,59.99170915250401,
Elephant_D.wav,2,2,SIMILAR,B,,,,,0,34,34,34,,,,,,,,,,,,,,,,,,,,,,,,,,,,,,,,,,,,,,,,,,,,,,,,,,,,,,,,,,,,,,,,,,,,,,,,,,,,,,189.6967542998027,None,191.24470146985257,None,191.2373781998176,None,191.2373781998176,None,194.11245489981957,None,3,0,0.3982661999762058,194.11245489981957,None,,,,,,,,,,,,,,001,2021_Feb_28_1139,GuessTheSound,2020.2.10,59.99170915250401,
Initial/Repeat/Sneeze_B.wav,2,3,NEW,B,,,,,0,35,35,35,,,,,,,,,,,,,,,,,,,,,,,,,,,,,,,,,,,,,,,,,,,,,,,,,,,,,,,,,,,,,,,,,,,,,,,,,,,,,,194.53129469999112,None,196.0614042799454,None,196.0602652998641,None,196.0602652998641,None,197.29566890001297,None,3,1,0.6253926001954824,197.29566890001297,None,,,,,,,,,,,,,,001,2021_Feb_28_1139,GuessTheSound,2020.2.10,59.99170915250401,
Test/Foils/Camera.wav,1,1,OLD,B,,,,,0,36,36,36,,,,,,,,,,,,,,,,,,,,,,,,,,,,,,,,,,,,,,,,,,,,,,,,,,,,,,,,,,,,,,,,,,,,,,,,,,,,,,197.94645859999582,None,199.46145758989732,None,199.46520949993283,None,199.46520949993283,None,200.4289464999456,None,1,1,0.43578099994920194,200.4289464999456,None,,,,,,,,,,,,,,001,2021_Feb_28_1139,GuessTheSound,2020.2.10,59.99170915250401,
Initial/Doubled/Cat_A.wav,2,3,NEW,B,,,,,0,37,37,37,,,,,,,,,,,,,,,,,,,,,,,,,,,,,,,,,,,,,,,,,,,,,,,,,,,,,,,,,,,,,,,,,,,,,,,,,,,,,,200.8960941999685,None,202.42824797988868,None,202.42660749983042,None,202.42660749983042,None,203.84583369991742,None,3,1,0.37914289999753237,203.84583369991742,None,,,,,,,,,,,,,,001,2021_Feb_28_1139,GuessTheSound,2020.2.10,59.99170915250401,
Test/Foils/Steam.wav,1,1,OLD,B,,,,,0,38,38,38,,,,,,,,,,,,,,,,,,,,,,,,,,,,,,,,,,,,,,,,,,,,,,,,,,,,,,,,,,,,,,,,,,,,,,,,,,,,,,204.24599939980544,None,205.76167528985533,None,205.76854239986278,None,205.76854239986278,None,208.29556049988605,None,3,0,0.03977530007250607,208.29556049988605,None,,,,,,,,,,,,,,001,2021_Feb_28_1139,GuessTheSound,2020.2.10,59.99170915250401,
Writing_C.wav,2,2,SIMILAR,B,,,,,0,39,39,39,,,,,,,,,,,,,,,,,,,,,,,,,,,,,,,,,,,,,,,,,,,,,,,,,,,,,,,,,,,,,,,,,,,,,,,,,,,,,,208.3623381999787,None,209.89469667994416,None,209.8983481999021,None,209.8983481999021,None,212.61210069991648,None,2,1,0.3414928000420332,212.61210069991648,None,,,,,,,,,,,,,,001,2021_Feb_28_1139,GuessTheSound,2020.2.10,59.99170915250401,
Initial/Repeat/IceDrop.wav,1,1,OLD,B,,,,,0,40,40,40,,,,,,,,,,,,,,,,,,,,,,,,,,,,,,,,,,,,,,,,,,,,,,,,,,,,,,,,,,,,,,,,,,,,,,,,,,,,,,212.97981039993465,None,214.49461218996439,None,214.50414749979973,None,214.50414749979973,None,217.2621573000215,None,3,0,0.5941478998865932,217.2621573000215,None,,,,,,,,,,,,,,001,2021_Feb_28_1139,GuessTheSound,2020.2.10,59.99170915250401,
Test/Foils/Slurp.wav,2,3,NEW,B,,,,,0,41,41,41,,,,,,,,,,,,,,,,,,,,,,,,,,,,,,,,,,,,,,,,,,,,,,,,,,,,,,,,,,,,,,,,,,,,,,,,,,,,,,217.87958519998938,None,219.44450415982865,None,219.43850059993565,None,219.43850059993565,None,221.81204969994724,None,3,1,0.3459091999102384,221.81204969994724,None,,,,,,,,,,,,,,001,2021_Feb_28_1139,GuessTheSound,2020.2.10,59.99170915250401,
Baby_E.wav,2,2,SIMILAR,B,,,,,0,42,42,42,,,,,,,,,,,,,,,,,,,,,,,,,,,,,,,,,,,,,,,,,,,,,,,,,,,,,,,,,,,,,,,,,,,,,,,,,,,,,,222.17744649993256,None,223.69450457980855,None,223.7008106999565,None,223.7008106999565,None,226.01194679993205,None,2,1,0.46808780007995665,226.01194679993205,None,,,,,,,,,,,,,,001,2021_Feb_28_1139,GuessTheSound,2020.2.10,59.99170915250401,
Test/Foils/DialTone.wav,2,3,NEW,B,,,,,0,43,43,43,,,,,,,,,,,,,,,,,,,,,,,,,,,,,,,,,,,,,,,,,,,,,,,,,,,,,,,,,,,,,,,,,,,,,,,,,,,,,,226.49575719982386,None,228.04485437001566,None,228.05491869989783,None,228.05491869989783,None,230.56193510000594,None,3,1,0.39245589985512197,230.56193510000594,None,,,,,,,,,,,,,,001,2021_Feb_28_1139,GuessTheSound,2020.2.10,59.99170915250401,
Initial/NoRepeat/Puff_A.wav,1,1,OLD,B,,,,,0,44,44,44,,,,,,,,,,,,,,,,,,,,,,,,,,,,,,,,,,,,,,,,,,,,,,,,,,,,,,,,,,,,,,,,,,,,,,,,,,,,,,230.97957819979638,None,232.4944089898141,None,232.49992219987325,None,232.49992219987325,None,234.1955972998403,None,1,1,0.36096169985830784,234.1955972998403,None,,,,,,,,,,,,,,001,2021_Feb_28_1139,GuessTheSound,2020.2.10,59.99170915250401,
Initial/Repeat/Buzz.wav,2,3,NEW,B,,,,,0,45,45,45,,,,,,,,,,,,,,,,,,,,,,,,,,,,,,,,,,,,,,,,,,,,,,,,,,,,,,,,,,,,,,,,,,,,,,,,,,,,,,234.57922469987534,None,236.11094017983413,None,236.11568849999458,None,236.11568849999458,None,238.42852309998125,None,3,1,0.3537149999756366,238.42852309998125,None,,,,,,,,,,,,,,001,2021_Feb_28_1139,GuessTheSound,2020.2.10,59.99170915250401,
Test/Foils/Airhorn.wav,1,1,OLD,B,,,,,0,46,46,46,,,,,,,,,,,,,,,,,,,,,,,,,,,,,,,,,,,,,,,,,,,,,,,,,,,,,,,,,,,,,,,,,,,,,,,,,,,,,,238.81251759990118,None,240.3277780898148,None,240.33604569989257,None,240.33604569989257,None,242.89530929992907,None,1,1,0.30849290010519326,242.89530929992907,None,,,,,,,,,,,,,,001,2021_Feb_28_1139,GuessTheSound,2020.2.10,59.99170915250401,
Initial/NoRepeat/Sleighbells_B.wav,2,3,NEW,B,,,,,0,47,47,47,,,,,,,,,,,,,,,,,,,,,,,,,,,,,,,,,,,,,,,,,,,,,,,,,,,,,,,,,,,,,,,,,,,,,,,,,,,,,,243.2295724998694,None,244.7608706800267,None,244.7702511998359,None,244.7702511998359,None,247.19544469984248,None,3,1,0.42682529985904694,247.19544469984248,None,,,,,,,,,,,,,,001,2021_Feb_28_1139,GuessTheSound,2020.2.10,59.99170915250401,
Initial/Doubled/Cuckoo_A.wav,1,1,OLD,B,,,,,0,48,48,48,,,,,,,,,,,,,,,,,,,,,,,,,,,,,,,,,,,,,,,,,,,,,,,,,,,,,,,,,,,,,,,,,,,,,,,,,,,,,,247.64541330002248,None,249.16140788982156,None,249.1679399998393,None,249.1679399998393,None,251.66204949980602,None,3,0,0.015467199962586164,251.66204949980602,None,,,,,,,,,,,,,,001,2021_Feb_28_1139,GuessTheSound,2020.2.10,59.99170915250401,
Test/Foils/Wind_B.wav,2,3,NEW,B,,,,,0,49,49,49,,,,,,,,,,,,,,,,,,,,,,,,,,,,,,,,,,,,,,,,,,,,,,,,,,,,,,,,,,,,,,,,,,,,,,,,,,,,,,251.69635370001197,None,253.2610976599157,None,253.26078799995594,None,253.26078799995594,None,255.99464889988303,None,3,1,0.3156254000496119,255.99464889988303,None,,,,,,,,,,,,,,001,2021_Feb_28_1139,GuessTheSound,2020.2.10,59.99170915250401,
Test/Foils/Typing.wav,2,3,NEW,B,,,,,0,50,50,50,,,,,,,,,,,,,,,,,,,,,,,,,,,,,,,,,,,,,,,,,,,,,,,,,,,,,,,,,,,,,,,,,,,,,,,,,,,,,,256.3293913998641,None,257.8774531698553,None,257.88613379979506,None,257.88613379979506,None,260.7451769998297,None,3,1,0.3176757001783699,260.7451769998297,None,,,,,,,,,,,,,,001,2021_Feb_28_1139,GuessTheSound,2020.2.10,59.99170915250401,
Test/Lures/Bubbles_B.wav,2,2,SIMILAR,B,,,,,0,51,51,51,,,,,,,,,,,,,,,,,,,,,,,,,,,,,,,,,,,,,,,,,,,,,,,,,,,,,,,,,,,,,,,,,,,,,,,,,,,,,,261.07948710001074,None,262.6274619699223,None,262.6315721999854,None,262.6315721999854,None,265.07840759982355,None,2,1,0.4078499001916498,265.07840759982355,None,,,,,,,,,,,,,,001,2021_Feb_28_1139,GuessTheSound,2020.2.10,59.99170915250401,
Duck_A.wav,2,3,NEW,B,,,,,0,52,52,52,,,,,,,,,,,,,,,,,,,,,,,,,,,,,,,,,,,,,,,,,,,,,,,,,,,,,,,,,,,,,,,,,,,,,,,,,,,,,,265.51332239992917,None,267.06074796996546,None,267.05717059993185,None,267.05717059993185,None,269.1617680999916,None,3,1,0.33631990011781454,269.1617680999916,None,,,,,,,,,,,,,,001,2021_Feb_28_1139,GuessTheSound,2020.2.10,59.99170915250401,
Initial/Repeat/Trumpet_B.wav,1,1,OLD,B,,,,,0,53,53,53,,,,,,,,,,,,,,,,,,,,,,,,,,,,,,,,,,,,,,,,,,,,,,,,,,,,,,,,,,,,,,,,,,,,,,,,,,,,,,269.52749799983576,None,271.04405767987487,None,271.0374785999302,None,271.0374785999302,None,273.32806869992055,None,1,1,0.29268969991244376,273.32806869992055,None,,,,,,,,,,,,,,001,2021_Feb_28_1139,GuessTheSound,2020.2.10,59.99170915250401,
Initial/Repeat/PaperRip.wav,1,1,OLD,B,,,,,0,54,54,54,,,,,,,,,,,,,,,,,,,,,,,,,,,,,,,,,,,,,,,,,,,,,,,,,,,,,,,,,,,,,,,,,,,,,,,,,,,,,,273.6463283000048,None,275.160823689797,None,275.1673713999335,None,275.1673713999335,None,276.76138039981015,None,3,0,1.031843800097704,276.76138039981015,None,,,,,,,,,,,,,,001,2021_Feb_28_1139,GuessTheSound,2020.2.10,59.99170915250401,
Initial/Repeat/Sneeze_B.wav,1,1,OLD,B,,,,,0,55,55,55,,,,,,,,,,,,,,,,,,,,,,,,,,,,,,,,,,,,,,,,,,,,,,,,,,,,,,,,,,,,,,,,,,,,,,,,,,,,,,277.8153658998199,None,279.3274172898615,None,279.33590369997546,None,279.33590369997546,None,280.56171309994534,None,1,1,0.3829938000999391,280.56171309994534,None,,,,,,,,,,,,,,001,2021_Feb_28_1139,GuessTheSound,2020.2.10,59.99170915250401,
Initial/Repeat/Pour.wav,2,3,NEW,B,,,,,0,56,56,56,,,,,,,,,,,,,,,,,,,,,,,,,,,,,,,,,,,,,,,,,,,,,,,,,,,,,,,,,,,,,,,,,,,,,,,,,,,,,,280.96583219990134,None,282.51062076988165,None,282.5052747000009,None,282.5052747000009,None,285.0782178998925,None,3,1,0.5124691999517381,285.0782178998925,None,,,,,,,,,,,,,,001,2021_Feb_28_1139,GuessTheSound,2020.2.10,59.99170915250401,
Initial/Doubled/Cat_A.wav,1,1,OLD,B,,,,,0,57,57,57,,,,,,,,,,,,,,,,,,,,,,,,,,,,,,,,,,,,,,,,,,,,,,,,,,,,,,,,,,,,,,,,,,,,,,,,,,,,,,285.6124534998089,None,287.12729499002455,None,287.1327169998549,None,287.1327169998549,None,288.5613917999435,None,1,1,0.5806993001606315,288.5613917999435,None,,,,,,,,,,,,,,001,2021_Feb_28_1139,GuessTheSound,2020.2.10,59.99170915250401,
Test/Foils/Slurp.wav,1,1,OLD,B,,,,,0,58,58,58,,,,,,,,,,,,,,,,,,,,,,,,,,,,,,,,,,,,,,,,,,,,,,,,,,,,,,,,,,,,,,,,,,,,,,,,,,,,,,289.1639562000055,None,290.67735818985386,None,290.6853180998005,None,290.6853180998005,None,293.06166859995574,None,1,1,0.4018041999079287,293.06166859995574,None,,,,,,,,,,,,,,001,2021_Feb_28_1139,GuessTheSound,2020.2.10,59.99170915250401,
Test/Foils/Bullfrog.wav,1,1,OLD,B,,,,,0,59,59,59,,,,,,,,,,,,,,,,,,,,,,,,,,,,,,,,,,,,,,,,,,,,,,,,,,,,,,,,,,,,,,,,,,,,,,,,,,,,,,293.48189469985664,None,294.99339918980843,None,294.9934178998228,None,294.9934178998228,None,297.87810249999166,None,1,1,0.3169760999735445,297.87810249999166,None,,,,,,,,,,,,,,001,2021_Feb_28_1139,GuessTheSound,2020.2.10,59.99170915250401,
Test/Foils/Wind_B.wav,1,1,OLD,B,,,,,0,60,60,60,,,,,,,,,,,,,,,,,,,,,,,,,,,,,,,,,,,,,,,,,,,,,,,,,,,,,,,,,,,,,,,,,,,,,,,,,,,,,,298.2120879997965,None,299.7271846898599,None,299.73616339988075,None,299.73616339988075,None,302.4780529998243,None,1,1,0.7447667000815272,302.4780529998243,None,,,,,,,,,,,,,,001,2021_Feb_28_1139,GuessTheSound,2020.2.10,59.99170915250401,
Duck_B.wav,2,2,SIMILAR,B,,,,,0,61,61,61,,,,,,,,,,,,,,,,,,,,,,,,,,,,,,,,,,,,,,,,,,,,,,,,,,,,,,,,,,,,,,,,,,,,,,,,,,,,,,303.2449417000171,None,304.77711867988114,None,304.7787120998837,None,304.7787120998837,None,306.49457689980045,None,2,1,1.614764800062403,306.49457689980045,None,,,,,,,,,,,,,,001,2021_Feb_28_1139,GuessTheSound,2020.2.10,59.99170915250401,
Test/Foils/DialTone.wav,1,1,OLD,B,,,,,0,62,62,62,,,,,,,,,,,,,,,,,,,,,,,,,,,,,,,,,,,,,,,,,,,,,,,,,,,,,,,,,,,,,,,,,,,,,,,,,,,,,,308.1292026999872,None,309.66029357984667,None,309.65816489979625,None,309.65816489979625,None,312.1613276998978,None,1,1,0.12324790004640818,312.1613276998978,None,,,,,,,,,,,,,,001,2021_Feb_28_1139,GuessTheSound,2020.2.10,59.99170915250401,
Initial/Repeat/Buzz.wav,1,1,OLD,B,,,,,0,63,63,63,,,,,,,,,,,,,,,,,,,,,,,,,,,,,,,,,,,,,,,,,,,,,,,,,,,,,,,,,,,,,,,,,,,,,,,,,,,,,,312.31300769979134,None,313.82701018990485,None,313.8352572999429,None,313.8352572999429,None,316.1442698999308,None,1,1,0.379535699961707,316.1442698999308,None,,,,,,,,,,,,,,001,2021_Feb_28_1139,GuessTheSound,2020.2.10,59.99170915250401,
Pour_C.wav,2,2,SIMILAR,B,,,,,0,64,64,64,,,,,,,,,,,,,,,,,,,,,,,,,,,,,,,,,,,,,,,,,,,,,,,,,,,,,,,,,,,,,,,,,,,,,,,,,,,,,,316.54502009996213,None,318.0770611798391,None,318.08216180000454,None,318.08216180000454,None,320.97769329999574,None,2,1,0.7366347999777645,320.97769329999574,None,,,,,,,,,,,,,,001,2021_Feb_28_1139,GuessTheSound,2020.2.10,59.99170915250401,
Test/Foils/Typing.wav,1,1,OLD,B,,,,,0,65,65,65,,,,,,,,,,,,,,,,,,,,,,,,,,,,,,,,,,,,,,,,,,,,,,,,,,,,,,,,,,,,,,,,,,,,,,,,,,,,,,321.7436334998347,None,323.2599894798361,None,323.25520669994876,None,323.25520669994876,None,326.1275313999504,None,1,1,0.28073780005797744,326.1275313999504,None,,,,,,,,,,,,,,001,2021_Feb_28_1139,GuessTheSound,2020.2.10,59.99170915250401,
Initial/NoRepeat/Sleighbells_B.wav,1,1,OLD,B,,,,,0,66,66,66,,,,,,,,,,,,,,,,,,,,,,,,,,,,,,,,,,,,,,,,,,,,,,,,,,,,,,,,,,,,,,,,,,,,,,,,,,,,,,326.4291794998571,None,327.9434213899309,None,327.95121339987963,None,327.95121339987963,None,330.37754719983786,None,3,0,0.8602805000264198,330.37754719983786,None,,,,,,,,,,,,,,001,2021_Feb_28_1139,GuessTheSound,2020.2.10,59.99170915250401,
,,,,,,,,,,,,,,,,,,,,,,,,,,,,,,,,,,,,,,,,,,,,,,,,,,,,,,,,,,,,,,,,,,,,,,,,,,,,,,,,,,,,,,,,,,,,,,,,,,,,,,,,,331.2940139998682,None,331.2940139998682,None,331.2940139998682,None,space,8.060826499946415,331.2940139998682,None,,,,001,2021_Feb_28_1139,GuessTheSound,2020.2.10,59.99170915250401,
,,,,,,,,,,,,,,,,,,,,,,,,,,,,,,,,,,,,,,,,,,,,,,,,,,,,,,,,,,,,,,,,,,,,,,,,,,,,,,,,,,,,,,,,,,,,,,,,,,,,,,,,,,,,,,,,,,,331.2940139998682,None,,,,,,,
