SoundFiles3,Correct,PracticeTrials.thisRepN,PracticeTrials.thisTrialN,PracticeTrials.thisN,PracticeTrials.thisIndex,trials.thisRepN,trials.thisTrialN,trials.thisN,trials.thisIndex,InstructionTxt.started,InstructionTxt.stopped,WelcomContinue.started,WelcomContinue.stopped,VolumeBeginTxt.started,VolumeBeginTxt.stopped,VolumeContinueKey.keys,VolumeContinueKey.rt,VolumeContinueKey.started,VolumeContinueKey.stopped,text.started,text.stopped,Music.started,Music.stopped,AdjustContinue.started,AdjustContinue.stopped,HeadphoneCheckBeing.started,HeadphoneCheckBeing.stopped,HeadphoneContinue.started,HeadphoneContinue.stopped,HeadphoneContinueKey.keys,HeadphoneContinueKey.rt,HeadphoneContinueKey.started,HeadphoneContinueKey.stopped,WelcomeTxt1.started,WelcomeTxt1.stopped,ContinueKey1.started,ContinueKey1.stopped,ContinueResp.keys,ContinueResp.rt,ContinueResp.started,ContinueResp.stopped,Welcome2Txt.started,Welcome2Txt.stopped,Wel2ContinueKey.keys,Wel2ContinueKey.rt,Wel2ContinueKey.started,Wel2ContinueKey.stopped,Continue2.started,Continue2.stopped,InstructionTxt2.started,InstructionTxt2.stopped,WelcomeContinue2.started,WelcomeContinue2.stopped,WelcomeContinueKey2.keys,WelcomeContinueKey2.rt,WelcomeContinueKey2.started,WelcomeContinueKey2.stopped,TrialNumber.started,TrialNumber.stopped,PracticeSound.started,PracticeSound.stopped,PracticeCross.started,PracticeCross.stopped,Practice_resp.keys,Practice_resp.corr,Practice_resp.rt,Practice_resp.started,Practice_resp.stopped,PracticeMssg.started,PracticeMssg.stopped,FeedbackCross.started,FeedbackCross.stopped,Continue.started,Continue.stopped,Options.started,Options.stopped,FeedbackMssg.started,FeedbackMssg.stopped,StartTxt.started,StartTxt.stopped,StartTast.keys,StartTast.rt,StartTast.started,StartTast.stopped,ContinueStart.started,ContinueStart.stopped,no1.started,no1.stopped,no_2.started,no_2.stopped,no_3.started,no_3.stopped,TargetSound.started,TargetSound.stopped,Cross.started,Cross.stopped,ItemNumber.started,ItemNumber.stopped,MSTQuestion.started,MSTQuestion.stopped,MSTResp.keys,MSTResp.corr,MSTResp.rt,MSTResp.started,MSTResp.stopped,ThankyouMssg.started,ThankyouMssg.stopped,CompletionCode.started,CompletionCode.stopped,ExitTxt.started,ExitTxt.stopped,ExitKey.keys,ExitKey.rt,ExitKey.started,ExitKey.stopped,CodeTxt.started,CodeTxt.stopped,participant,session,date,expName,psychopyVersion,frameRate,
,,,,,,,,,,25.987024900037795,None,25.987024900037795,None,26.849957500002347,None,space,0.8901730000507087,26.849957500002347,None,,,,,,,,,,,,,,,,,,,,,,,,,,,,,,,,,,,,,,,,,,,,,,,,,,,,,,,,,,,,,,,,,,,,,,,,,,,,,,,,,,,,,,,,,,,,,,,,,,,,001,2021_Jan_23_1426,GuessTheSound,2020.2.10,60.02912613015317,
,,,,,,,,,,,,,,,,,,,,27.79323690000456,None,27.785927759972402,None,27.79323690000456,None,29.190501300035976,None,29.190501300035976,None,space,0.7097782000200823,29.190501300035976,None,,,,,,,,,,,,,,,,,,,,,,,,,,,,,,,,,,,,,,,,,,,,,,,,,,,,,,,,,,,,,,,,,,,,,,,,,,,,,,,,,,,,,,001,2021_Jan_23_1426,GuessTheSound,2020.2.10,60.02912613015317,
,,,,,,,,,,,,,,,,,,,,,,,,,,,,,,,,,,29.927322300034575,None,29.927322300034575,None,space,0.5670721000060439,29.927322300034575,None,,,,,,,,,,,,,,,,,,,,,,,,,,,,,,,,,,,,,,,,,,,,,,,,,,,,,,,,,,,,,,,,,,,,,,,,,,,,,,001,2021_Jan_23_1426,GuessTheSound,2020.2.10,60.02912613015317,
,,,,,,,,,,,,,,,,,,,,,,,,,,,,,,,,,,,,,,,,,,30.523563400027342,None,space,0.42463250004220754,30.523563400027342,None,,,,,,,,,,,,,,,,,,,,,,,,,,,,,,,,,,,,,,,,,,,,,,,,,,,,,,,,,,,,,,,,,,,,,,,,001,2021_Jan_23_1426,GuessTheSound,2020.2.10,60.02912613015317,
,,,,,,,,,,,,,,,,,,,,,,,,,,,,,,,,,,,,,,,,,,,,,,,,30.523563400027342,None,30.976913699996658,None,30.976913699996658,None,space,0.6067485000239685,30.976913699996658,None,,,,,,,,,,,,,,,,,,,,,,,,,,,,,,,,,,,,,,,,,,,,,,,,,,,,,,,,,,,,,,001,2021_Jan_23_1426,GuessTheSound,2020.2.10,60.02912613015317,
Practice/Seagull_A.wav,3,0,0,0,0,,,,,,,,,,,,,,,,,,,,,,,,,,,,,,,,,,,,,,,,,,,,,,,,,,,,,31.786983800004236,34.05226530006621,31.78586535996292,None,31.786983800004236,34.05226530006621,3,1,1.764800600009039,34.10840280004777,None,34.10840280004777,None,34.10840280004777,None,34.10840280004777,None,34.10840280004777,None,35.93366730003618,None,,,,,,,,,,,,,,,,,,,,,,,,,,,,,,,,,,,,,,,,,001,2021_Jan_23_1426,GuessTheSound,2020.2.10,60.02912613015317,
Practice/Skid_B.wav,3,0,1,1,1,,,,,,,,,,,,,,,,,,,,,,,,,,,,,,,,,,,,,,,,,,,,,,,,,,,,,36.93706500006374,None,36.93517645997926,None,36.93706500006374,None,3,1,0.652749800006859,39.05299360002391,None,39.05299360002391,None,39.05299360002391,None,39.05299360002391,None,39.05299360002391,None,39.73522380006034,None,,,,,,,,,,,,,,,,,,,,,,,,,,,,,,,,,,,,,,,,,001,2021_Jan_23_1426,GuessTheSound,2020.2.10,60.02912613015317,
Practice/Seagull_A.wav,1,0,2,2,2,,,,,,,,,,,,,,,,,,,,,,,,,,,,,,,,,,,,,,,,,,,,,,,,,,,,,40.73502600006759,None,40.73490232998738,None,40.73502600006759,None,1,1,2.6265368999447674,43.03336220001802,None,43.03336220001802,None,43.03336220001802,None,43.03336220001802,None,43.03336220001802,None,45.68486549996305,None,,,,,,,,,,,,,,,,,,,,,,,,,,,,,,,,,,,,,,,,,001,2021_Jan_23_1426,GuessTheSound,2020.2.10,60.02912613015317,
Practice/Gargle_A.wav,3,0,3,3,3,,,,,,,,,,,,,,,,,,,,,,,,,,,,,,,,,,,,,,,,,,,,,,,,,,,,,46.74463129998185,None,46.73395191999152,None,46.74463129998185,None,2,0,0.5407590999966487,49.040944100008346,None,49.040944100008346,None,49.040944100008346,None,49.040944100008346,None,49.040944100008346,None,49.6004747999832,None,,,,,,,,,,,,,,,,,,,,,,,,,,,,,,,,,,,,,,,,,001,2021_Jan_23_1426,GuessTheSound,2020.2.10,60.02912613015317,
Practice/Gargle_B.wav,2,0,4,4,4,,,,,,,,,,,,,,,,,,,,,,,,,,,,,,,,,,,,,,,,,,,,,,,,,,,,,50.612940500024706,None,50.61728085998911,None,50.612940500024706,None,2,1,0.5945996000664309,52.678519800072536,None,52.678519800072536,None,52.678519800072536,None,52.678519800072536,None,52.678519800072536,None,53.31714679999277,None,,,,,,,,,,,,,,,,,,,,,,,,,,,,,,,,,,,,,,,,,001,2021_Jan_23_1426,GuessTheSound,2020.2.10,60.02912613015317,
,,,,,,,,,,,,,,,,,,,,,,,,,,,,,,,,,,,,,,,,,,,,,,,,,,,,,,,,,,,,,,,,,,,,,,,,,,,,,,,54.31911380006932,None,space,1.658226600033231,54.31911380006932,None,,,,,,,,,,,,,,,,,,,,,,,,,,,,,,,,,,,001,2021_Jan_23_1426,GuessTheSound,2020.2.10,60.02912613015317,
Initial/NoRepeat/Elephant_A.wav,3,,,,,0,0,0,0,,,,,,,,,,,,,,,,,,,,,,,,,,,,,,,,,,,,,,,,,,,,,,,,,,,,,,,,,,,,,,,,,,,,,,,,,,,,54.31911380006932,None,58.0518238999648,None,57.05209160002414,58.0518238999648,56.07204590004403,57.08542570006102,59.05200069005368,None,59.05194110004231,None,59.05194110004231,None,61.602602700004354,None,3,1,1.1406586000230163,61.602602700004354,None,,,,,,,,,,,,,,001,2021_Jan_23_1426,GuessTheSound,2020.2.10,60.02912613015317,
Initial/Doubled/Coin_A.wav,3,,,,,0,1,1,1,,,,,,,,,,,,,,,,,,,,,,,,,,,,,,,,,,,,,,,,,,,,,,,,,,,,,,,,,,,,,,,,,,,,,,,,,,,,,,64.75164610007778,None,63.75128049997147,64.75164610007778,62.768397800042294,63.76822990004439,65.7681048600003,None,65.76394299999811,None,65.76394299999811,None,66.885911499965,None,3,1,0.8364172000437975,66.885911499965,None,,,,,,,,,,,,,,001,2021_Jan_23_1426,GuessTheSound,2020.2.10,60.02912613015317,
Initial/Doubled/Cuckoo_A.wav,3,,,,,0,2,2,2,,,,,,,,,,,,,,,,,,,,,,,,,,,,,,,,,,,,,,,,,,,,,,,,,,,,,,,,,,,,,,,,,,,,,,,,,,,,,,69.73499630007427,None,68.73504759999923,69.73499630007427,67.75331140006892,68.76842500001658,70.75149605995975,None,70.75514130003285,None,70.75514130003285,None,72.73577130003832,None,3,1,1.1214942000806332,72.73577130003832,None,,,,,,,,,,,,,,001,2021_Jan_23_1426,GuessTheSound,2020.2.10,60.02912613015317,
Initial/Doubled/Piano_A.wav,3,,,,,0,3,3,3,,,,,,,,,,,,,,,,,,,,,,,,,,,,,,,,,,,,,,,,,,,,,,,,,,,,,,,,,,,,,,,,,,,,,,,,,,,,,,75.868222399964,None,74.86849300004542,75.868222399964,73.88583020004444,74.8851408000337,76.88531985997687,None,76.88193919998594,79.25186119996943,76.88193919998594,79.25186119996943,79.26931140001398,None,3,1,0.4526448999531567,79.26931140001398,None,,,,,,,,,,,,,,001,2021_Jan_23_1426,GuessTheSound,2020.2.10,60.02912613015317,
Initial/Doubled/Siren_A.wav,3,,,,,0,4,4,4,,,,,,,,,,,,,,,,,,,,,,,,,,,,,,,,,,,,,,,,,,,,,,,,,,,,,,,,,,,,,,,,,,,,,,,,,,,,,,81.73484709998593,None,80.73482660006266,81.73484709998593,79.75142530002631,80.7514745000517,82.73444913002895,None,82.74089949997142,None,82.74089949997142,None,85.0358771000756,None,3,1,0.786994899972342,85.0358771000756,None,,,,,,,,,,,,,,001,2021_Jan_23_1426,GuessTheSound,2020.2.10,60.02912613015317,
Test/Foils/Bird.wav,3,,,,,0,5,5,5,,,,,,,,,,,,,,,,,,,,,,,,,,,,,,,,,,,,,,,,,,,,,,,,,,,,,,,,,,,,,,,,,,,,,,,,,,,,,,87.834594200016,None,86.83464989997447,87.834594200016,85.85143410007004,86.85126440005843,88.88508732004557,None,88.88673929998185,None,88.88673929998185,None,91.10254360002,None,3,1,0.6785016000503674,91.10254360002,None,,,,,,,,,,,,,,001,2021_Jan_23_1426,GuessTheSound,2020.2.10,60.02912613015317,
Initial/Doubled/Cat_A.wav,3,,,,,0,6,6,6,,,,,,,,,,,,,,,,,,,,,,,,,,,,,,,,,,,,,,,,,,,,,,,,,,,,,,,,,,,,,,,,,,,,,,,,,,,,,,93.78479930001777,None,92.78461830003653,93.78479930001777,91.80116799997631,92.8012630000012,94.80107715995982,None,94.7985848999815,None,94.7985848999815,None,95.71892899996601,None,3,1,0.7282555000856519,95.71892899996601,None,,,,,,,,,,,,,,001,2021_Jan_23_1426,GuessTheSound,2020.2.10,60.02912613015317,
Initial/NoRepeat/Baby_B.wav,3,,,,,0,7,7,7,,,,,,,,,,,,,,,,,,,,,,,,,,,,,,,,,,,,,,,,,,,,,,,,,,,,,,,,,,,,,,,,,,,,,,,,,,,,,,98.45132300001569,None,97.45134819997475,98.45132300001569,96.46968600002583,97.48458060005214,99.48475158998043,None,99.4786560999928,102.01810440002009,99.4786560999928,102.01810440002009,102.03583369997796,None,3,1,0.42706090002320707,102.03583369997796,None,,,,,,,,,,,,,,001,2021_Jan_23_1426,GuessTheSound,2020.2.10,60.02912613015317,
Initial/Doubled/Writing_A.wav,3,,,,,0,8,8,8,,,,,,,,,,,,,,,,,,,,,,,,,,,,,,,,,,,,,,,,,,,,,,,,,,,,,,,,,,,,,,,,,,,,,,,,,,,,,,104.46780900005251,None,103.46802100003697,104.46780900005251,102.48438000003807,103.48462410003413,105.48440136006101,None,105.48013440007344,None,105.48013440007344,None,107.66889319999609,None,3,1,0.7197077999589965,107.66889319999609,None,,,,,,,,,,,,,,001,2021_Jan_23_1426,GuessTheSound,2020.2.10,60.02912613015317,
Piano_B.wav,2,,,,,0,9,9,9,,,,,,,,,,,,,,,,,,,,,,,,,,,,,,,,,,,,,,,,,,,,,,,,,,,,,,,,,,,,,,,,,,,,,,,,,,,,,,110.40120830002706,None,109.40124979999382,110.40120830002706,108.41789649997372,109.41792909998912,111.41791355996392,None,111.42267870006617,None,111.42267870006617,None,113.58550499996636,None,2,1,1.124591099913232,113.58550499996636,None,,,,,,,,,,,,,,001,2021_Jan_23_1426,GuessTheSound,2020.2.10,60.02912613015317,
Initial/NoRepeat/Sleighbells_B.wav,3,,,,,0,10,10,10,,,,,,,,,,,,,,,,,,,,,,,,,,,,,,,,,,,,,,,,,,,,,,,,,,,,,,,,,,,,,,,,,,,,,,,,,,,,,,116.71792419999838,None,115.71800470002927,116.71792419999838,114.73462620005012,115.73453660006635,117.73471395999658,None,117.73650700005237,119.6678143000463,117.73650700005237,119.6678143000463,119.68538769998122,None,3,1,0.4806697000749409,119.68538769998122,None,,,,,,,,,,,,,,001,2021_Jan_23_1426,GuessTheSound,2020.2.10,60.02912613015317,
Test/Foils/Typing.wav,3,,,,,0,11,11,11,,,,,,,,,,,,,,,,,,,,,,,,,,,,,,,,,,,,,,,,,,,,,,,,,,,,,,,,,,,,,,,,,,,,,,,,,,,,,,122.16794149996713,None,121.16794159996789,122.16794149996713,120.18899389996659,121.20143560005818,123.20136379000031,None,123.20822200004477,125.56784280005377,123.20822200004477,125.56784280005377,125.58533440006431,None,3,1,1.7021826000418514,125.58533440006431,None,,,,,,,,,,,,,,001,2021_Jan_23_1426,GuessTheSound,2020.2.10,60.02912613015317,
Initial/Repeat/Pour.wav,3,,,,,0,12,12,12,,,,,,,,,,,,,,,,,,,,,,,,,,,,,,,,,,,,,,,,,,,,,,,,,,,,,,,,,,,,,,,,,,,,,,,,,,,,,,129.28452480002306,None,128.28462230006699,129.28452480002306,127.30309339996893,128.31805000000168,130.33450271997137,None,130.3436512000626,None,130.3436512000626,None,132.4185791000491,None,2,0,0.614840800059028,132.4185791000491,None,,,,,,,,,,,,,,001,2021_Jan_23_1426,GuessTheSound,2020.2.10,60.02912613015317,
Initial/Doubled/HairDryer_A.wav,3,,,,,0,13,13,13,,,,,,,,,,,,,,,,,,,,,,,,,,,,,,,,,,,,,,,,,,,,,,,,,,,,,,,,,,,,,,,,,,,,,,,,,,,,,,135.0348858999787,None,134.0346265999833,135.0348858999787,133.05397010000888,134.067663099966,136.05116056001282,None,136.06002179998904,138.13451140001416,136.06002179998904,138.13451140001416,138.1519738000352,None,3,1,0.2569749999092892,138.1519738000352,None,,,,,,,,,,,,,,001,2021_Jan_23_1426,GuessTheSound,2020.2.10,60.02912613015317,
Initial/Doubled/Cuckoo_A.wav,1,,,,,0,14,14,14,,,,,,,,,,,,,,,,,,,,,,,,,,,,,,,,,,,,,,,,,,,,,,,,,,,,,,,,,,,,,,,,,,,,,,,,,,,,,,140.4176433000248,None,139.41758240002673,140.4176433000248,138.43429870007094,139.4343031999888,141.43426216000228,None,141.42870110005606,143.41765319998376,141.42870110005606,143.41765319998376,143.43520309997257,None,1,1,0.5080393999814987,143.43520309997257,None,,,,,,,,,,,,,,001,2021_Jan_23_1426,GuessTheSound,2020.2.10,60.02912613015317,
Initial/Doubled/Chime_A.wav,3,,,,,0,15,15,15,,,,,,,,,,,,,,,,,,,,,,,,,,,,,,,,,,,,,,,,,,,,,,,,,,,,,,,,,,,,,,,,,,,,,,,,,,,,,,145.95135640003718,None,144.95115450001322,145.95135640003718,143.9673925000243,144.9677506000735,146.96769405996895,None,146.97784880001564,149.30114460003097,146.97784880001564,149.30114460003097,149.31856759998482,None,3,1,0.38895399996545166,149.31856759998482,None,,,,,,,,,,,,,,001,2021_Jan_23_1426,GuessTheSound,2020.2.10,60.02912613015317,
Initial/NoRepeat/Fireworks.wav,3,,,,,0,16,16,16,,,,,,,,,,,,,,,,,,,,,,,,,,,,,,,,,,,,,,,,,,,,,,,,,,,,,,,,,,,,,,,,,,,,,,,,,,,,,,151.71715150005184,None,150.71764609997626,151.71715150005184,149.73381240002345,150.7344944999786,152.73416466000492,None,152.73605649999809,None,152.73605649999809,None,155.20197310007643,None,3,1,0.6047799999359995,155.20197310007643,None,,,,,,,,,,,,,,001,2021_Jan_23_1426,GuessTheSound,2020.2.10,60.02912613015317,
Baby_A.wav,2,,,,,0,17,17,17,,,,,,,,,,,,,,,,,,,,,,,,,,,,,,,,,,,,,,,,,,,,,,,,,,,,,,,,,,,,,,,,,,,,,,,,,,,,,,157.81775459996425,None,156.81723450007848,157.81775459996425,155.83444460004102,156.83383520005737,158.81710163004465,None,158.82328880007844,160.91748529998586,158.82328880007844,160.91748529998586,160.9352192999795,None,2,1,0.626968799973838,160.9352192999795,None,,,,,,,,,,,,,,001,2021_Jan_23_1426,GuessTheSound,2020.2.10,60.02912613015317,
Test/Foils/DialTone.wav,3,,,,,0,18,18,18,,,,,,,,,,,,,,,,,,,,,,,,,,,,,,,,,,,,,,,,,,,,,,,,,,,,,,,,,,,,,,,,,,,,,,,,,,,,,,163.56698560004588,None,162.56756670004688,163.56698560004588,161.58377889997791,162.58417569997255,164.6173945200164,None,164.6125826999778,None,164.6125826999778,None,166.61839790001977,None,3,1,1.4669023999013007,166.61839790001977,None,,,,,,,,,,,,,,001,2021_Jan_23_1426,GuessTheSound,2020.2.10,60.02912613015317,
Siren_B.wav,2,,,,,0,19,19,19,,,,,,,,,,,,,,,,,,,,,,,,,,,,,,,,,,,,,,,,,,,,,,,,,,,,,,,,,,,,,,,,,,,,,,,,,,,,,,170.08440080005676,None,169.0844250000082,170.08440080005676,168.10576720000245,169.11753609997686,171.10103406002747,None,171.10287649999373,173.6506355999736,171.10287649999373,173.6506355999736,173.66813740006182,None,3,0,0.7576040000421926,173.66813740006182,None,,,,,,,,,,,,,,001,2021_Jan_23_1426,GuessTheSound,2020.2.10,60.02912613015317,
Initial/Repeat/Sneeze_B.wav,3,,,,,0,20,20,20,,,,,,,,,,,,,,,,,,,,,,,,,,,,,,,,,,,,,,,,,,,,,,,,,,,,,,,,,,,,,,,,,,,,,,,,,,,,,,176.43392270000186,None,175.43391110002995,176.43392270000186,174.45056160003878,175.45060960005503,177.46732799002203,None,177.47395710006822,None,177.47395710006822,None,178.20160849997774,None,3,1,1.2357529998989776,178.20160849997774,None,,,,,,,,,,,,,,001,2021_Jan_23_1426,GuessTheSound,2020.2.10,60.02912613015317,
Bird_C.wav,2,,,,,0,21,21,21,,,,,,,,,,,,,,,,,,,,,,,,,,,,,,,,,,,,,,,,,,,,,,,,,,,,,,,,,,,,,,,,,,,,,,,,,,,,,,181.45058190007694,None,180.45053380005993,181.45058190007694,179.47190150001552,180.48394429998007,182.48399489003933,None,182.48318350000773,None,182.48318350000773,None,183.73522909998428,None,2,1,0.5241548999911174,183.73522909998428,None,,,,,,,,,,,,,,001,2021_Jan_23_1426,GuessTheSound,2020.2.10,60.02912613015317,
Pour_D.wav,2,,,,,0,22,22,22,,,,,,,,,,,,,,,,,,,,,,,,,,,,,,,,,,,,,,,,,,,,,,,,,,,,,,,,,,,,,,,,,,,,,,,,,,,,,,186.26688030001242,None,185.26746030000504,186.26688030001242,184.2882400000235,185.30066539999098,187.2836512599839,None,187.27753069996834,None,187.27753069996834,None,189.83487630006857,None,2,1,0.5057413000613451,189.83487630006857,None,,,,,,,,,,,,,,001,2021_Jan_23_1426,GuessTheSound,2020.2.10,60.02912613015317,
Test/Foils/Camera.wav,3,,,,,0,23,23,23,,,,,,,,,,,,,,,,,,,,,,,,,,,,,,,,,,,,,,,,,,,,,,,,,,,,,,,,,,,,,,,,,,,,,,,,,,,,,,192.35051530005876,None,191.35084540001117,192.35051530005876,190.36792810005136,191.36740360001568,193.38394119000296,None,193.38839930004906,None,193.38839930004906,None,193.85157810000237,None,3,1,0.8728308000136167,193.85157810000237,None,,,,,,,,,,,,,,001,2021_Jan_23_1426,GuessTheSound,2020.2.10,60.02912613015317,
Initial/Doubled/Writing_A.wav,1,,,,,0,24,24,24,,,,,,,,,,,,,,,,,,,,,,,,,,,,,,,,,,,,,,,,,,,,,,,,,,,,,,,,,,,,,,,,,,,,,,,,,,,,,,196.7338199999649,None,195.73382119997405,196.7338199999649,194.75220830005128,195.76687389996368,197.73356253003004,None,197.737736399984,None,197.737736399984,None,199.93502730003092,None,1,1,0.514295700006187,199.93502730003092,None,,,,,,,,,,,,,,001,2021_Jan_23_1426,GuessTheSound,2020.2.10,60.02912613015317,
Test/Foils/Typing.wav,1,,,,,0,25,25,25,,,,,,,,,,,,,,,,,,,,,,,,,,,,,,,,,,,,,,,,,,,,,,,,,,,,,,,,,,,,,,,,,,,,,,,,,,,,,,202.45042220002506,None,201.45034660003148,202.45042220002506,200.46735050005373,201.4670561000239,203.4671837600414,None,203.4647501000436,None,203.4647501000436,None,205.83437779999804,None,2,0,0.6904282999457791,205.83437779999804,None,,,,,,,,,,,,,,001,2021_Jan_23_1426,GuessTheSound,2020.2.10,60.02912613015317,
Initial/NoRepeat/Snore_B.wav,3,,,,,0,26,26,26,,,,,,,,,,,,,,,,,,,,,,,,,,,,,,,,,,,,,,,,,,,,,,,,,,,,,,,,,,,,,,,,,,,,,,,,,,,,,,208.53369579999708,None,207.5336202000035,208.53369579999708,206.54990640003234,207.550476500066,209.55038226002364,None,209.55238290003035,None,209.55238290003035,None,211.46784840000328,None,3,1,0.9663320999825373,211.46784840000328,None,,,,,,,,,,,,,,001,2021_Jan_23_1426,GuessTheSound,2020.2.10,60.02912613015317,
Baby_C.wav,2,,,,,0,27,27,27,,,,,,,,,,,,,,,,,,,,,,,,,,,,,,,,,,,,,,,,,,,,,,,,,,,,,,,,,,,,,,,,,,,,,,,,,,,,,,214.43359570007306,None,213.43357520003337,214.43359570007306,212.45027480006684,213.45031169999857,215.45019666003066,None,215.45198020001408,None,215.45198020001408,None,217.45108949998394,None,2,1,0.5238883000565693,217.45108949998394,None,,,,,,,,,,,,,,001,2021_Jan_23_1426,GuessTheSound,2020.2.10,60.02912613015317,
Siren_C.wav,2,,,,,0,28,28,28,,,,,,,,,,,,,,,,,,,,,,,,,,,,,,,,,,,,,,,,,,,,,,,,,,,,,,,,,,,,,,,,,,,,,,,,,,,,,,219.98395090003032,None,218.9839706000639,219.98395090003032,218.0041984000709,219.01742230006494,221.00033805998976,None,221.00333510001656,222.9668279000325,221.00333510001656,222.9668279000325,222.98468950006645,None,3,0,0.5486244999337941,222.98468950006645,None,,,,,,,,,,,,,,001,2021_Jan_23_1426,GuessTheSound,2020.2.10,60.02912613015317,
Initial/Doubled/Chime_A.wav,1,,,,,0,29,29,29,,,,,,,,,,,,,,,,,,,,,,,,,,,,,,,,,,,,,,,,,,,,,,,,,,,,,,,,,,,,,,,,,,,,,,,,,,,,,,225.53331299999263,None,224.53352799999993,225.53331299999263,223.55250240000896,224.56683520006482,226.55014246006033,None,226.54731960000936,None,226.54731960000936,None,228.8831975000212,None,3,0,0.736431899946183,228.8831975000212,None,,,,,,,,,,,,,,001,2021_Jan_23_1426,GuessTheSound,2020.2.10,60.02912613015317,
Piano_C.wav,2,,,,,0,30,30,30,,,,,,,,,,,,,,,,,,,,,,,,,,,,,,,,,,,,,,,,,,,,,,,,,,,,,,,,,,,,,,,,,,,,,,,,,,,,,,231.63226900005247,None,230.6320203000214,231.63226900005247,229.64897530002054,230.64872759999707,232.64979346005714,None,232.64644100004807,None,232.64644100004807,None,235.1176690000575,None,2,1,1.7924319000449032,235.1176690000575,None,,,,,,,,,,,,,,001,2021_Jan_23_1426,GuessTheSound,2020.2.10,60.02912613015317,
Initial/NoRepeat/Fireworks.wav,1,,,,,0,31,31,31,,,,,,,,,,,,,,,,,,,,,,,,,,,,,,,,,,,,,,,,,,,,,,,,,,,,,,,,,,,,,,,,,,,,,,,,,,,,,,238.91718129999936,None,237.91679190006107,238.91718129999936,236.93364589998964,237.93378379999194,239.93361465996134,None,239.93219520000275,242.39999309997074,239.93219520000275,242.39999309997074,242.4176225999836,None,1,1,0.41446229990106076,242.4176225999836,None,,,,,,,,,,,,,,001,2021_Jan_23_1426,GuessTheSound,2020.2.10,60.02912613015317,
Pour_C.wav,2,,,,,0,32,32,32,,,,,,,,,,,,,,,,,,,,,,,,,,,,,,,,,,,,,,,,,,,,,,,,,,,,,,,,,,,,,,,,,,,,,,,,,,,,,,244.83344820002094,None,243.83344509999733,244.83344820002094,242.85146669996902,243.8667932000244,245.84991025996862,None,245.8549838999752,None,245.8549838999752,None,248.36758580000605,None,2,1,0.5798672999953851,248.36758580000605,None,,,,,,,,,,,,,,001,2021_Jan_23_1426,GuessTheSound,2020.2.10,60.02912613015317,
Bird_D.wav,2,,,,,0,33,33,33,,,,,,,,,,,,,,,,,,,,,,,,,,,,,,,,,,,,,,,,,,,,,,,,,,,,,,,,,,,,,,,,,,,,,,,,,,,,,,250.94999059999827,None,249.9499999000691,250.94999059999827,248.96730750007555,249.96671289997175,251.9669485599967,None,251.96712659997866,252.79989180003759,251.96712659997866,252.79989180003759,252.81728169997223,None,2,1,1.0423365000169724,252.81728169997223,None,,,,,,,,,,,,,,001,2021_Jan_23_1426,GuessTheSound,2020.2.10,60.02912613015317,
Initial/Repeat/Airplane_B.wav,3,,,,,0,34,34,34,,,,,,,,,,,,,,,,,,,,,,,,,,,,,,,,,,,,,,,,,,,,,,,,,,,,,,,,,,,,,,,,,,,,,,,,,,,,,,255.8667879999848,None,254.8666452000616,255.8667879999848,253.88489910005592,254.90000759996474,256.91658152004237,None,256.9181194000412,None,256.9181194000412,None,259.034348999965,None,3,1,2.0295478999614716,259.034348999965,None,,,,,,,,,,,,,,001,2021_Jan_23_1426,GuessTheSound,2020.2.10,60.02912613015317,
Test/Foils/Buzz.wav,3,,,,,0,35,35,35,,,,,,,,,,,,,,,,,,,,,,,,,,,,,,,,,,,,,,,,,,,,,,,,,,,,,,,,,,,,,,,,,,,,,,,,,,,,,,263.0664889999898,None,262.0667838000227,263.0664889999898,261.0850987000158,262.0999339000555,264.0998761899886,None,264.10851130005904,None,264.10851130005904,None,265.91743130004033,None,1,0,0.7917689000023529,265.91743130004033,None,,,,,,,,,,,,,,001,2021_Jan_23_1426,GuessTheSound,2020.2.10,60.02912613015317,
Test/Foils/Donkey.wav,3,,,,,0,36,36,36,,,,,,,,,,,,,,,,,,,,,,,,,,,,,,,,,,,,,,,,,,,,,,,,,,,,,,,,,,,,,,,,,,,,,,,,,,,,,,268.71627720003016,None,267.7162336000474,268.71627720003016,266.7327000000514,267.73289320000913,269.7493736900273,None,269.75528020004276,None,269.75528020004276,None,271.96716210001614,None,3,1,1.054881399963051,271.96716210001614,None,,,,,,,,,,,,,,001,2021_Jan_23_1426,GuessTheSound,2020.2.10,60.02912613015317,
Initial/Doubled/Cuckoo_A.wav,1,,,,,0,37,37,37,,,,,,,,,,,,,,,,,,,,,,,,,,,,,,,,,,,,,,,,,,,,,,,,,,,,,,,,,,,,,,,,,,,,,,,,,,,,,,275.03342370002065,None,274.03269769996405,275.03342370002065,273.0548075999832,274.06596170004923,276.0498949600384,None,276.0447739000665,None,276.0447739000665,None,278.03415820002556,None,1,1,0.42493460001423955,278.03415820002556,None,,,,,,,,,,,,,,001,2021_Jan_23_1426,GuessTheSound,2020.2.10,60.02912613015317,
Initial/Doubled/Chicken_A.wav,3,,,,,0,38,38,38,,,,,,,,,,,,,,,,,,,,,,,,,,,,,,,,,,,,,,,,,,,,,,,,,,,,,,,,,,,,,,,,,,,,,,,,,,,,,,280.46629949996714,None,279.46638980007265,280.46629949996714,278.4826834000414,279.48295159998816,281.48514726003634,None,281.4889811000321,282.66896759998053,281.4889811000321,282.66896759998053,282.6859519999707,None,2,0,1.1681841000681743,282.6859519999707,None,,,,,,,,,,,,,,001,2021_Jan_23_1426,GuessTheSound,2020.2.10,60.02912613015317,
Initial/Doubled/Laugh_A.wav,3,,,,,0,39,39,39,,,,,,,,,,,,,,,,,,,,,,,,,,,,,,,,,,,,,,,,,,,,,,,,,,,,,,,,,,,,,,,,,,,,,,,,,,,,,,285.8693363000639,None,284.8690315000713,285.8693363000639,283.8837845000671,284.8858356999699,286.9163683900028,None,286.91645410005003,None,286.91645410005003,None,289.1173838999821,None,3,1,0.8292597000254318,289.1173838999821,None,,,,,,,,,,,,,,001,2021_Jan_23_1426,GuessTheSound,2020.2.10,60.02912613015317,
Test/Foils/Typing.wav,1,,,,,0,40,40,40,,,,,,,,,,,,,,,,,,,,,,,,,,,,,,,,,,,,,,,,,,,,,,,,,,,,,,,,,,,,,,,,,,,,,,,,,,,,,,291.949538600049,None,290.94959870004095,291.949538600049,289.96772040007636,290.9831504999893,292.96642936000137,None,292.9687744000694,None,292.9687744000694,None,295.33382619998883,None,1,1,0.5120829000370577,295.33382619998883,None,,,,,,,,,,,,,,001,2021_Jan_23_1426,GuessTheSound,2020.2.10,60.02912613015317,
Initial/Doubled/Cough_A.wav,3,,,,,0,41,41,41,,,,,,,,,,,,,,,,,,,,,,,,,,,,,,,,,,,,,,,,,,,,,,,,,,,,,,,,,,,,,,,,,,,,,,,,,,,,,,297.84943509998266,None,296.84948870004155,297.84943509998266,295.86626300006174,296.8662263000151,298.86647105999293,None,298.86909270007163,None,298.86909270007163,None,300.0838974000653,None,2,0,0.7365643000230193,300.0838974000653,None,,,,,,,,,,,,,,001,2021_Jan_23_1426,GuessTheSound,2020.2.10,60.02912613015317,
Initial/Doubled/Clap_A.wav,3,,,,,0,42,42,42,,,,,,,,,,,,,,,,,,,,,,,,,,,,,,,,,,,,,,,,,,,,,,,,,,,,,,,,,,,,,,,,,,,,,,,,,,,,,,302.83307529997546,None,301.8326533000218,302.83307529997546,300.84991450002417,301.8493117999751,303.84943316006104,None,303.85184130002744,None,303.85184130002744,None,305.86711049999576,None,3,1,1.4067810999695212,305.86711049999576,None,,,,,,,,,,,,,,001,2021_Jan_23_1426,GuessTheSound,2020.2.10,60.02912613015317,
Initial/Doubled/Writing_A.wav,1,,,,,0,43,43,43,,,,,,,,,,,,,,,,,,,,,,,,,,,,,,,,,,,,,,,,,,,,,,,,,,,,,,,,,,,,,,,,,,,,,,,,,,,,,,309.2829548000591,None,308.2829014000017,309.2829548000591,307.3044729999965,308.3166340000462,310.29951885996854,None,310.3002465000609,None,310.3002465000609,None,312.4998910999857,None,1,1,1.1990954999346286,312.4998910999857,None,,,,,,,,,,,,,,001,2021_Jan_23_1426,GuessTheSound,2020.2.10,60.02912613015317,
Initial/Doubled/Chomp_A.wav,3,,,,,0,44,44,44,,,,,,,,,,,,,,,,,,,,,,,,,,,,,,,,,,,,,,,,,,,,,,,,,,,,,,,,,,,,,,,,,,,,,,,,,,,,,,315.6993857000489,None,314.6989551000297,315.6993857000489,313.7160871999804,314.71588220004924,316.69897362998455,None,316.7028350000037,None,316.7028350000037,None,318.88362740003504,None,3,1,0.608638400095515,318.88362740003504,None,,,,,,,,,,,,,,001,2021_Jan_23_1426,GuessTheSound,2020.2.10,60.02912613015317,
Initial/Doubled/CarStart_A.wav,3,,,,,0,45,45,45,,,,,,,,,,,,,,,,,,,,,,,,,,,,,,,,,,,,,,,,,,,,,,,,,,,,,,,,,,,,,,,,,,,,,,,,,,,,,,321.49941980000585,None,320.4989649000345,321.49941980000585,319.5157803000184,320.5155802000081,322.5158664600691,None,322.5112345999805,None,322.5112345999805,None,324.5168553000549,None,3,1,1.3547806000569835,324.5168553000549,None,,,,,,,,,,,,,,001,2021_Jan_23_1426,GuessTheSound,2020.2.10,60.02912613015317,
Initial/NoRepeat/Fireworks.wav,1,,,,,0,46,46,46,,,,,,,,,,,,,,,,,,,,,,,,,,,,,,,,,,,,,,,,,,,,,,,,,,,,,,,,,,,,,,,,,,,,,,,,,,,,,,327.88225969998166,None,326.8826371000614,327.88225969998166,325.8992577000754,326.8993332000682,328.8994801599998,None,328.8965551999863,None,328.8965551999863,None,331.3667456000112,None,1,1,0.5239194999448955,331.3667456000112,None,,,,,,,,,,,,,,001,2021_Jan_23_1426,GuessTheSound,2020.2.10,60.02912613015317,
Initial/NoRepeat/Toilet_B.wav,3,,,,,0,47,47,47,,,,,,,,,,,,,,,,,,,,,,,,,,,,,,,,,,,,,,,,,,,,,,,,,,,,,,,,,,,,,,,,,,,,,,,,,,,,,,333.8988575000549,None,332.89914550003596,333.8988575000549,331.9167921000626,332.9159033000469,334.91546086003075,None,334.90656370006036,337.33263550000265,334.90656370006036,337.33263550000265,337.3500778999878,None,3,1,0.58612130000256,337.3500778999878,None,,,,,,,,,,,,,,001,2021_Jan_23_1426,GuessTheSound,2020.2.10,60.02912613015317,
Initial/Repeat/Bagpipe.wav,3,,,,,0,48,48,48,,,,,,,,,,,,,,,,,,,,,,,,,,,,,,,,,,,,,,,,,,,,,,,,,,,,,,,,,,,,,,,,,,,,,,,,,,,,,,339.94920310005546,None,338.9491248000413,339.94920310005546,337.97346880007535,338.98261419998016,340.99923532006795,None,340.9952566999709,342.8655459000729,340.9952566999709,342.8655459000729,342.8829651999986,None,3,1,0.6510662999935448,342.8829651999986,None,,,,,,,,,,,,,,001,2021_Jan_23_1426,GuessTheSound,2020.2.10,60.02912613015317,
Initial/NoRepeat/Helicopter_A.wav,3,,,,,0,49,49,49,,,,,,,,,,,,,,,,,,,,,,,,,,,,,,,,,,,,,,,,,,,,,,,,,,,,,,,,,,,,,,,,,,,,,,,,,,,,,,345.54901660000905,None,344.5490652000299,345.54901660000905,343.5691697000293,344.5823919000104,346.54861533002696,None,346.5541092000203,None,346.5541092000203,None,348.51670070004184,None,3,1,1.2699350999901071,348.51670070004184,None,,,,,,,,,,,,,,001,2021_Jan_23_1426,GuessTheSound,2020.2.10,60.02912613015317,
Initial/Doubled/Dog_A.wav,3,,,,,0,50,50,50,,,,,,,,,,,,,,,,,,,,,,,,,,,,,,,,,,,,,,,,,,,,,,,,,,,,,,,,,,,,,,,,,,,,,,,,,,,,,,351.79909550002776,None,350.7989383999957,351.79909550002776,349.8227534000762,350.832293100073,352.81570276003333,None,352.8131548999809,None,352.8131548999809,None,354.91659789998084,None,3,1,0.5720504999626428,354.91659789998084,None,,,,,,,,,,,,,,001,2021_Jan_23_1426,GuessTheSound,2020.2.10,60.02912613015317,
Test/Foils/Wind_B.wav,3,,,,,0,51,51,51,,,,,,,,,,,,,,,,,,,,,,,,,,,,,,,,,,,,,,,,,,,,,,,,,,,,,,,,,,,,,,,,,,,,,,,,,,,,,,357.4989441999933,None,356.4988014000701,357.4989441999933,355.5153946999926,356.5152549999766,358.5321837900323,None,358.53053550003096,None,358.53053550003096,None,360.76604220003355,None,3,1,0.5670355999609455,360.76604220003355,None,,,,,,,,,,,,,,001,2021_Jan_23_1426,GuessTheSound,2020.2.10,60.02912613015317,
Initial/Doubled/Chime_A.wav,1,,,,,0,52,52,52,,,,,,,,,,,,,,,,,,,,,,,,,,,,,,,,,,,,,,,,,,,,,,,,,,,,,,,,,,,,,,,,,,,,,,,,,,,,,,363.33228830003645,None,362.3323292999994,363.33228830003645,361.3489998000441,362.34907270001713,364.34929366004656,None,364.34750859998167,None,364.34750859998167,None,366.682855400024,None,1,1,0.49108220008201897,366.682855400024,None,,,,,,,,,,,,,,001,2021_Jan_23_1426,GuessTheSound,2020.2.10,60.02912613015317,
Laugh_C.wav,2,,,,,0,53,53,53,,,,,,,,,,,,,,,,,,,,,,,,,,,,,,,,,,,,,,,,,,,,,,,,,,,,,,,,,,,,,,,,,,,,,,,,,,,,,,369.18254319997504,None,368.1824735000264,369.18254319997504,367.2009111000225,368.215810899972,370.19908366005404,None,370.2073073000647,None,370.2073073000647,None,372.56591070001014,None,2,1,0.4257251999806613,372.56591070001014,None,,,,,,,,,,,,,,001,2021_Jan_23_1426,GuessTheSound,2020.2.10,60.02912613015317,
Cough_D.wav,2,,,,,0,54,54,54,,,,,,,,,,,,,,,,,,,,,,,,,,,,,,,,,,,,,,,,,,,,,,,,,,,,,,,,,,,,,,,,,,,,,,,,,,,,,,374.99888089997694,None,373.9988787000766,374.99888089997694,373.01764420000836,374.03247730003204,376.01595975996463,None,376.0177518000128,None,376.0177518000128,None,377.28329100005794,None,2,1,0.5243195999646559,377.28329100005794,None,,,,,,,,,,,,,,001,2021_Jan_23_1426,GuessTheSound,2020.2.10,60.02912613015317,
Test/Foils/Buzz.wav,1,,,,,0,55,55,55,,,,,,,,,,,,,,,,,,,,,,,,,,,,,,,,,,,,,,,,,,,,,,,,,,,,,,,,,,,,,,,,,,,,,,,,,,,,,,379.8156040000031,None,378.81571009999607,379.8156040000031,377.8348505999893,378.84894950001035,380.8152306300006,None,380.8246846999973,None,380.8246846999973,None,382.63252700003795,None,1,1,2.1938661000458524,382.63252700003795,None,,,,,,,,,,,,,,001,2021_Jan_23_1426,GuessTheSound,2020.2.10,60.02912613015317,
Initial/Repeat/IceDrop.wav,3,,,,,0,56,56,56,,,,,,,,,,,,,,,,,,,,,,,,,,,,,,,,,,,,,,,,,,,,,,,,,,,,,,,,,,,,,,,,,,,,,,,,,,,,,,386.8319236000534,None,385.8323762000073,386.8319236000534,384.8484698999673,385.848817500053,387.882203919976,None,387.8915608000243,None,387.8915608000243,None,390.1496255999664,None,3,1,0.748449599952437,390.1496255999664,None,,,,,,,,,,,,,,001,2021_Jan_23_1426,GuessTheSound,2020.2.10,60.02912613015317,
Initial/NoRepeat/Toilet_B.wav,1,,,,,0,57,57,57,,,,,,,,,,,,,,,,,,,,,,,,,,,,,,,,,,,,,,,,,,,,,,,,,,,,,,,,,,,,,,,,,,,,,,,,,,,,,,392.8982298000483,None,391.8983004000038,392.8982298000483,390.91572779999115,391.9153862000676,393.9154819599586,None,393.9116820000345,None,393.9116820000345,None,396.3332446999848,None,1,1,0.45460940001066774,396.3332446999848,None,,,,,,,,,,,,,,001,2021_Jan_23_1426,GuessTheSound,2020.2.10,60.02912613015317,
CarStart_D.wav,2,,,,,0,58,58,58,,,,,,,,,,,,,,,,,,,,,,,,,,,,,,,,,,,,,,,,,,,,,,,,,,,,,,,,,,,,,,,,,,,,,,,,,,,,,,398.7982169999741,None,397.79874940006994,398.7982169999741,396.8150166000705,397.81568220001645,399.8156127600465,None,399.81405789998826,402.36567980004475,399.81405789998826,402.36567980004475,402.38262040005066,None,2,1,0.8601737000280991,402.38262040005066,None,,,,,,,,,,,,,,001,2021_Jan_23_1426,GuessTheSound,2020.2.10,60.02912613015317,
Chomp_B.wav,2,,,,,0,59,59,59,,,,,,,,,,,,,,,,,,,,,,,,,,,,,,,,,,,,,,,,,,,,,,,,,,,,,,,,,,,,,,,,,,,,,,,,,,,,,,405.24853129999246,None,404.24858700006735,405.24853129999246,403.27971430006437,404.2822474000277,406.265425759973,None,406.2656159000471,None,406.2656159000471,None,408.3687660000287,None,2,1,0.8053028000285849,408.3687660000287,None,,,,,,,,,,,,,,001,2021_Jan_23_1426,GuessTheSound,2020.2.10,60.02912613015317,
Initial/Doubled/Clap_A.wav,1,,,,,0,60,60,60,,,,,,,,,,,,,,,,,,,,,,,,,,,,,,,,,,,,,,,,,,,,,,,,,,,,,,,,,,,,,,,,,,,,,,,,,,,,,,411.1821578000672,None,410.1817955999868,411.1821578000672,409.1986064000521,410.1985038999701,412.1984902599594,None,412.19359210005496,414.19848490005825,412.19359210005496,414.19848490005825,414.2160460000159,None,1,1,0.762893500039354,414.2160460000159,None,,,,,,,,,,,,,,001,2021_Jan_23_1426,GuessTheSound,2020.2.10,60.02912613015317,
Initial/Doubled/Bubbles_A.wav,3,,,,,0,61,61,61,,,,,,,,,,,,,,,,,,,,,,,,,,,,,,,,,,,,,,,,,,,,,,,,,,,,,,,,,,,,,,,,,,,,,,,,,,,,,,416.99848399998154,None,415.99870260001626,416.99848399998154,415.00681599997915,416.0152546999743,418.0317597900634,None,418.0342266999651,None,418.0342266999651,None,419.949297400075,None,3,1,0.6955775999231264,419.949297400075,None,,,,,,,,,,,,,,001,2021_Jan_23_1426,GuessTheSound,2020.2.10,60.02912613015317,
Dog_C.wav,2,,,,,0,62,62,62,,,,,,,,,,,,,,,,,,,,,,,,,,,,,,,,,,,,,,,,,,,,,,,,,,,,,,,,,,,,,,,,,,,,,,,,,,,,,,422.6481303999899,None,421.64806400006637,422.6481303999899,420.665193599998,421.6647788999835,423.64789142996307,None,423.6542477000039,None,423.6542477000039,None,425.1825791000156,None,2,1,1.030990600003861,425.1825791000156,None,,,,,,,,,,,,,,001,2021_Jan_23_1426,GuessTheSound,2020.2.10,60.02912613015317,
Laugh_D.wav,2,,,,,0,63,63,63,,,,,,,,,,,,,,,,,,,,,,,,,,,,,,,,,,,,,,,,,,,,,,,,,,,,,,,,,,,,,,,,,,,,,,,,,,,,,,428.2156482000137,None,427.2152044000104,428.2156482000137,426.2338169000577,427.2484519999707,429.23167586002967,None,429.23609150003176,None,429.23609150003176,None,431.3662081999937,None,2,1,2.1203962999861687,431.3662081999937,None,,,,,,,,,,,,,,001,2021_Jan_23_1426,GuessTheSound,2020.2.10,60.02912613015317,
Initial/NoRepeat/Helicopter_A.wav,1,,,,,0,64,64,64,,,,,,,,,,,,,,,,,,,,,,,,,,,,,,,,,,,,,,,,,,,,,,,,,,,,,,,,,,,,,,,,,,,,,,,,,,,,,,435.49796940002125,None,434.49814739997964,435.49796940002125,433.514927500044,434.5148598999949,436.4977752299863,None,436.49778019997757,438.4480587000726,436.49778019997757,438.4480587000726,438.46585569996387,None,1,1,0.5161552999634296,438.46585569996387,None,,,,,,,,,,,,,,001,2021_Jan_23_1426,GuessTheSound,2020.2.10,60.02912613015317,
Cough_C.wav,2,,,,,0,65,65,65,,,,,,,,,,,,,,,,,,,,,,,,,,,,,,,,,,,,,,,,,,,,,,,,,,,,,,,,,,,,,,,,,,,,,,,,,,,,,,440.9817619000096,None,439.982552499976,440.99840559996665,438.998906700057,439.9982563999947,442.00080865996426,None,441.99694069998804,None,441.99694069998804,None,442.96608579996973,None,2,1,0.6910691999364644,442.96608579996973,None,,,,,,,,,,,,,,001,2021_Jan_23_1426,GuessTheSound,2020.2.10,60.02912613015317,
Test/Foils/PaperRip.wav,3,,,,,0,66,66,66,,,,,,,,,,,,,,,,,,,,,,,,,,,,,,,,,,,,,,,,,,,,,,,,,,,,,,,,,,,,,,,,,,,,,,,,,,,,,,445.6644451000029,None,444.66494819999207,445.6644451000029,443.6813723000232,444.68138620001264,446.6811086599715,None,446.68511099996977,447.78111900005024,446.68511099996977,447.78111900005024,447.79874500003643,None,3,1,0.549973800079897,447.79874500003643,None,,,,,,,,,,,,,,001,2021_Jan_23_1426,GuessTheSound,2020.2.10,60.02912613015317,
Test/Foils/Wind_B.wav,1,,,,,0,67,67,67,,,,,,,,,,,,,,,,,,,,,,,,,,,,,,,,,,,,,,,,,,,,,,,,,,,,,,,,,,,,,,,,,,,,,,,,,,,,,,450.34829800005537,None,449.34821730002295,450.34829800005537,448.3693158000242,449.38167090003844,451.3649702599738,None,451.3639504000312,453.59780650003813,451.3639504000312,453.59780650003813,453.61531580006704,None,1,1,0.3902116999961436,453.61531580006704,None,,,,,,,,,,,,,,001,2021_Jan_23_1426,GuessTheSound,2020.2.10,60.02912613015317,
CarStart_B.wav,2,,,,,0,68,68,68,,,,,,,,,,,,,,,,,,,,,,,,,,,,,,,,,,,,,,,,,,,,,,,,,,,,,,,,,,,,,,,,,,,,,,,,,,,,,,456.01506790006533,None,455.0147114000283,456.01506790006533,454.0359709999757,455.0481986000668,457.0483008900541,None,457.0460383000318,459.09791230002884,457.0460383000318,459.09791230002884,459.1158641000511,None,2,1,0.5677861999720335,459.1158641000511,None,,,,,,,,,,,,,,001,2021_Jan_23_1426,GuessTheSound,2020.2.10,60.02912613015317,
Chomp_C.wav,2,,,,,0,69,69,69,,,,,,,,,,,,,,,,,,,,,,,,,,,,,,,,,,,,,,,,,,,,,,,,,,,,,,,,,,,,,,,,,,,,,,,,,,,,,,461.6975411999738,None,460.6979363000719,461.6975411999738,459.71432150003966,460.7145336000249,462.71454405996485,None,462.7176127000712,None,462.7176127000712,None,464.9820992000168,None,2,1,1.535910400096327,464.9820992000168,None,,,,,,,,,,,,,,001,2021_Jan_23_1426,GuessTheSound,2020.2.10,60.02912613015317,
ManWhistle_C.wav,3,,,,,0,70,70,70,,,,,,,,,,,,,,,,,,,,,,,,,,,,,,,,,,,,,,,,,,,,,,,,,,,,,,,,,,,,,,,,,,,,,,,,,,,,,,468.53088069998194,None,467.5312689000275,468.53088069998194,466.54989220004063,467.56453319999855,469.5478325600503,None,469.5501065000426,None,469.5501065000426,None,470.5485396999866,None,3,1,1.4524213999975473,470.5485396999866,None,,,,,,,,,,,,,,001,2021_Jan_23_1426,GuessTheSound,2020.2.10,60.02912613015317,
Test/Foils/Buzz.wav,1,,,,,0,71,71,71,,,,,,,,,,,,,,,,,,,,,,,,,,,,,,,,,,,,,,,,,,,,,,,,,,,,,,,,,,,,,,,,,,,,,,,,,,,,,,474.01481820002664,None,473.0148738999851,474.01481820002664,472.03784350003116,473.0481176000321,475.03136046000293,None,475.02661349996924,None,475.02661349996924,None,476.83209729997907,None,1,1,0.3955487000057474,476.83209729997907,None,,,,,,,,,,,,,,001,2021_Jan_23_1426,GuessTheSound,2020.2.10,60.02912613015317,
Initial/NoRepeat/Droplet_B.wav,3,,,,,0,72,72,72,,,,,,,,,,,,,,,,,,,,,,,,,,,,,,,,,,,,,,,,,,,,,,,,,,,,,,,,,,,,,,,,,,,,,,,,,,,,,,479.2312099999981,None,478.2312318000477,479.2312099999981,477.25135430006776,478.26484039996285,480.2481726600323,None,480.24865269998554,481.89775050000753,480.24865269998554,481.89775050000753,481.91551359998994,None,3,1,0.9537078000139445,481.91551359998994,None,,,,,,,,,,,,,,001,2021_Jan_23_1426,GuessTheSound,2020.2.10,60.02912613015317,
Initial/Doubled/Guitar_A.wav,3,,,,,0,73,73,73,,,,,,,,,,,,,,,,,,,,,,,,,,,,,,,,,,,,,,,,,,,,,,,,,,,,,,,,,,,,,,,,,,,,,,,,,,,,,,484.8810728000244,None,483.88135290006176,484.8810728000244,482.90081300004385,483.9148383999709,485.89793365998196,None,485.9014592000749,None,485.9014592000749,None,488.015422699973,None,3,1,0.8595073000760749,488.015422699973,None,,,,,,,,,,,,,,001,2021_Jan_23_1426,GuessTheSound,2020.2.10,60.02912613015317,
Initial/NoRepeat/Toilet_B.wav,1,,,,,0,74,74,74,,,,,,,,,,,,,,,,,,,,,,,,,,,,,,,,,,,,,,,,,,,,,,,,,,,,,,,,,,,,,,,,,,,,,,,,,,,,,,490.8810963999713,None,489.88138160004746,490.8810963999713,488.8976176000433,489.89781330002006,491.88095552999295,None,491.8874504000414,None,491.8874504000414,None,494.3160039000213,None,1,1,0.5591367000015453,494.3160039000213,None,,,,,,,,,,,,,,001,2021_Jan_23_1426,GuessTheSound,2020.2.10,60.02912613015317,
Dog_D.wav,2,,,,,0,75,75,75,,,,,,,,,,,,,,,,,,,,,,,,,,,,,,,,,,,,,,,,,,,,,,,,,,,,,,,,,,,,,,,,,,,,,,,,,,,,,,496.88102790003177,None,495.8808136000298,496.88102790003177,494.89763150003273,495.89747339999303,497.8976504600374,None,497.89964980003424,499.4142104999628,497.89964980003424,499.4142104999628,499.44852470001206,None,2,1,0.7653438000706956,499.44852470001206,None,,,,,,,,,,,,,,001,2021_Jan_23_1426,GuessTheSound,2020.2.10,60.02912613015317,
Initial/Doubled/Clap_A.wav,1,,,,,0,76,76,76,,,,,,,,,,,,,,,,,,,,,,,,,,,,,,,,,,,,,,,,,,,,,,,,,,,,,,,,,,,,,,,,,,,,,,,,,,,,,,502.21451970003545,None,501.21487849997357,502.21451970003545,500.23499939998146,501.24971040000673,503.23099266006614,None,503.2304925000062,505.23118640005123,503.2304925000062,505.23118640005123,505.2486069999868,None,3,0,1.590616500005126,505.2486069999868,None,,,,,,,,,,,,,,001,2021_Jan_23_1426,GuessTheSound,2020.2.10,60.02912613015317,
Test/Foils/PaperRip.wav,1,,,,,0,77,77,77,,,,,,,,,,,,,,,,,,,,,,,,,,,,,,,,,,,,,,,,,,,,,,,,,,,,,,,,,,,,,,,,,,,,,,,,,,,,,,508.86391139996704,None,507.8476566000609,508.8471688000718,506.86609660007525,507.88113760005217,509.88094206005337,None,509.8773024000693,None,509.8773024000693,None,510.98206730000675,None,3,0,1.834713999996893,510.98206730000675,None,,,,,,,,,,,,,,001,2021_Jan_23_1426,GuessTheSound,2020.2.10,60.02912613015317,
Test/Foils/Wind_B.wav,1,,,,,0,78,78,78,,,,,,,,,,,,,,,,,,,,,,,,,,,,,,,,,,,,,,,,,,,,,,,,,,,,,,,,,,,,,,,,,,,,,,,,,,,,,,514.8146917000413,None,513.8137074999977,514.8146917000413,512.8334599999944,513.8471527000656,515.8306708600371,None,515.8262225000653,None,515.8262225000653,None,518.0653322000289,None,1,1,0.47189110005274415,518.0653322000289,None,,,,,,,,,,,,,,001,2021_Jan_23_1426,GuessTheSound,2020.2.10,60.02912613015317,
Initial/NoRepeat/Helicopter_A.wav,1,,,,,0,79,79,79,,,,,,,,,,,,,,,,,,,,,,,,,,,,,,,,,,,,,,,,,,,,,,,,,,,,,,,,,,,,,,,,,,,,,,,,,,,,,,520.5471694000298,None,519.5473534000339,520.5471694000298,518.5641303000739,519.5640234000748,521.5640420599607,None,521.557773699984,523.5140306999674,521.557773699984,523.5140306999674,523.5315904000308,None,3,0,0.7393071999540552,523.5315904000308,None,,,,,,,,,,,,,,001,2021_Jan_23_1426,GuessTheSound,2020.2.10,60.02912613015317,
Initial/NoRepeat/Goat_B.wav,3,,,,,0,80,80,80,,,,,,,,,,,,,,,,,,,,,,,,,,,,,,,,,,,,,,,,,,,,,,,,,,,,,,,,,,,,,,,,,,,,,,,,,,,,,,526.2809167000232,None,525.2810167999705,526.2809167000232,524.2987942000618,525.3142214000691,527.2976268599973,None,527.302799200057,528.9474697000114,527.302799200057,528.9474697000114,528.9648434000555,None,3,1,0.8812137000495568,528.9648434000555,None,,,,,,,,,,,,,,001,2021_Jan_23_1426,GuessTheSound,2020.2.10,60.02912613015317,
Initial/Repeat/ManWhistle.wav,2,,,,,0,81,81,81,,,,,,,,,,,,,,,,,,,,,,,,,,,,,,,,,,,,,,,,,,,,,,,,,,,,,,,,,,,,,,,,,,,,,,,,,,,,,,531.8470306000672,None,530.8474165999796,531.8470306000672,529.8686661999673,530.880678400048,532.8635670599992,None,532.8683815000113,534.5801950000459,532.8683815000113,534.5801950000459,534.5980564000783,None,2,1,1.4952505000401288,534.5980564000783,None,,,,,,,,,,,,,,001,2021_Jan_23_1426,GuessTheSound,2020.2.10,60.02912613015317,
Test/Foils/Bullfrog.wav,3,,,,,0,82,82,82,,,,,,,,,,,,,,,,,,,,,,,,,,,,,,,,,,,,,,,,,,,,,,,,,,,,,,,,,,,,,,,,,,,,,,,,,,,,,,538.0975334000541,None,537.0976219000295,538.0975334000541,536.114322300069,537.114283700008,539.1473573199938,None,539.1428361000726,None,539.1428361000726,None,541.698326600017,None,3,1,0.38827509991824627,541.698326600017,None,,,,,,,,,,,,,,001,2021_Jan_23_1426,GuessTheSound,2020.2.10,60.02912613015317,
Initial/NoRepeat/Thunder_A.wav,3,,,,,0,83,83,83,,,,,,,,,,,,,,,,,,,,,,,,,,,,,,,,,,,,,,,,,,,,,,,,,,,,,,,,,,,,,,,,,,,,,,,,,,,,,,544.0973312000278,None,543.097696700017,544.0973312000278,542.1146544000367,543.113980300026,545.1138625600374,None,545.1178596999962,None,545.1178596999962,None,547.6143618000206,None,3,1,2.291251500020735,547.6143618000206,None,,,,,,,,,,,,,,001,2021_Jan_23_1426,GuessTheSound,2020.2.10,60.02912613015317,
Initial/NoRepeat/Faucet_A.wav,3,,,,,0,84,84,84,,,,,,,,,,,,,,,,,,,,,,,,,,,,,,,,,,,,,,,,,,,,,,,,,,,,,,,,,,,,,,,,,,,,,,,,,,,,,,551.9140116000781,None,550.9140298999846,551.9140116000781,549.930539599969,550.9306676000124,552.930376059981,None,552.9339188999729,None,552.9339188999729,None,554.9148234999739,None,3,1,1.462623400031589,554.9148234999739,None,,,,,,,,,,,,,,001,2021_Jan_23_1426,GuessTheSound,2020.2.10,60.02912613015317,
Initial/Repeat/Phone_A.wav,3,,,,,0,85,85,85,,,,,,,,,,,,,,,,,,,,,,,,,,,,,,,,,,,,,,,,,,,,,,,,,,,,,,,,,,,,,,,,,,,,,,,,,,,,,,558.3803521000082,None,557.3803531000158,558.3803521000082,556.3987536000786,557.4137199000688,559.4306569200008,None,559.4304583000485,None,559.4304583000485,None,561.8812830999959,None,3,1,0.4023764000739902,561.8812830999959,None,,,,,,,,,,,,,,001,2021_Jan_23_1426,GuessTheSound,2020.2.10,60.02912613015317,
Test/Foils/PaperRip.wav,1,,,,,0,86,86,86,,,,,,,,,,,,,,,,,,,,,,,,,,,,,,,,,,,,,,,,,,,,,,,,,,,,,,,,,,,,,,,,,,,,,,,,,,,,,,564.2973951000022,None,563.2803251000587,564.2806350999745,562.2987518999726,563.3139776000753,565.313717960054,None,565.312692400068,None,565.312692400068,None,566.4145304000704,None,1,1,0.9015846999827772,566.4145304000704,None,,,,,,,,,,,,,,001,2021_Jan_23_1426,GuessTheSound,2020.2.10,60.02912613015317,
Initial/Doubled/Growl_A.wav,3,,,,,0,87,87,87,,,,,,,,,,,,,,,,,,,,,,,,,,,,,,,,,,,,,,,,,,,,,,,,,,,,,,,,,,,,,,,,,,,,,,,,,,,,,,569.3136531000491,None,568.313858199981,569.3136531000491,567.3373527000658,568.3470748000545,570.3304270600433,None,570.3401997999754,None,570.3401997999754,None,572.6974432000425,None,3,1,0.5468324999092147,572.6974432000425,None,,,,,,,,,,,,,,001,2021_Jan_23_1426,GuessTheSound,2020.2.10,60.02912613015317,
Initial/Repeat/Howl.wav,3,,,,,0,88,88,88,,,,,,,,,,,,,,,,,,,,,,,,,,,,,,,,,,,,,,,,,,,,,,,,,,,,,,,,,,,,,,,,,,,,,,,,,,,,,,575.2472713000607,None,574.2472974000266,575.2472713000607,573.263835699996,574.2635913999984,576.2969470200361,None,576.2973035000032,578.5466568999691,576.2973035000032,578.5466568999691,578.5642422999954,None,2,0,0.7961579000111669,578.5642422999954,None,,,,,,,,,,,,,,001,2021_Jan_23_1426,GuessTheSound,2020.2.10,60.02912613015317,
Initial/Repeat/Whistle_A.wav,3,,,,,0,89,89,89,,,,,,,,,,,,,,,,,,,,,,,,,,,,,,,,,,,,,,,,,,,,,,,,,,,,,,,,,,,,,,,,,,,,,,,,,,,,,,581.3636677999748,None,580.363717900007,581.3636677999748,579.3822905999841,580.3967984999763,582.3969426900497,None,582.4044711000752,None,582.4044711000752,None,583.3978133000201,None,3,1,1.39938690001145,583.3978133000201,None,,,,,,,,,,,,,,001,2021_Jan_23_1426,GuessTheSound,2020.2.10,60.02912613015317,
Goat_A.wav,2,,,,,0,90,90,90,,,,,,,,,,,,,,,,,,,,,,,,,,,,,,,,,,,,,,,,,,,,,,,,,,,,,,,,,,,,,,,,,,,,,,,,,,,,,,586.7970821000636,None,585.7965165000642,586.7970821000636,584.8130101000424,585.8130470999749,587.8130616600624,None,587.8076008000644,None,587.8076008000644,None,589.8142145000165,None,2,1,0.992833000025712,589.8142145000165,None,,,,,,,,,,,,,,001,2021_Jan_23_1426,GuessTheSound,2020.2.10,60.02912613015317,
ManWhistle_D.wav,2,,,,,0,91,91,91,,,,,,,,,,,,,,,,,,,,,,,,,,,,,,,,,,,,,,,,,,,,,,,,,,,,,,,,,,,,,,,,,,,,,,,,,,,,,,592.8300331999781,None,591.8296826999867,592.8300331999781,590.83627910004,591.8463224000297,593.8469649600097,None,593.848077600007,None,593.848077600007,None,594.964282699977,None,2,1,1.1361238000681624,594.964282699977,None,,,,,,,,,,,,,,001,2021_Jan_23_1426,GuessTheSound,2020.2.10,60.02912613015317,
Initial/NoRepeat/Puff_A.wav,3,,,,,0,92,92,92,,,,,,,,,,,,,,,,,,,,,,,,,,,,,,,,,,,,,,,,,,,,,,,,,,,,,,,,,,,,,,,,,,,,,,,,,,,,,,598.1137021000031,None,597.1136509000789,598.1137021000031,596.1374317000154,597.1467609000392,599.1305447600548,None,599.1328175000381,None,599.1328175000381,None,600.3311335999751,None,3,1,2.146711500012316,600.3311335999751,None,,,,,,,,,,,,,,001,2021_Jan_23_1426,GuessTheSound,2020.2.10,60.02912613015317,
Phone_C.wav,2,,,,,0,93,93,93,,,,,,,,,,,,,,,,,,,,,,,,,,,,,,,,,,,,,,,,,,,,,,,,,,,,,,,,,,,,,,,,,,,,,,,,,,,,,,604.4799082999816,None,603.479926,604.4799082999816,602.4964526999975,603.4966662999941,605.4965329600032,None,605.5005667000078,None,605.5005667000078,None,607.7644208000274,None,2,1,0.9468536000931635,607.7644208000274,None,,,,,,,,,,,,,,001,2021_Jan_23_1426,GuessTheSound,2020.2.10,60.02912613015317,
Growl_B.wav,2,,,,,0,94,94,94,,,,,,,,,,,,,,,,,,,,,,,,,,,,,,,,,,,,,,,,,,,,,,,,,,,,,,,,,,,,,,,,,,,,,,,,,,,,,,610.7131163000595,None,609.7133684,610.7131163000595,608.7299483000534,609.7299743000185,611.7298547600162,None,611.731908799964,None,611.731908799964,None,614.1974925000686,None,2,1,4.518176899990067,614.1974925000686,None,,,,,,,,,,,,,,001,2021_Jan_23_1426,GuessTheSound,2020.2.10,60.02912613015317,
Test/Foils/Bullfrog.wav,1,,,,,0,95,95,95,,,,,,,,,,,,,,,,,,,,,,,,,,,,,,,,,,,,,,,,,,,,,,,,,,,,,,,,,,,,,,,,,,,,,,,,,,,,,,620.7299087999854,None,619.729701000033,620.7299087999854,618.7462021000683,619.7465915000066,621.7467707600676,None,621.7423490000656,None,621.7423490000656,None,624.2973526000278,None,1,1,0.44522090000100434,624.2973526000278,None,,,,,,,,,,,,,,001,2021_Jan_23_1426,GuessTheSound,2020.2.10,60.02912613015317,
Initial/NoRepeat/Thunder_A.wav,1,,,,,0,96,96,96,,,,,,,,,,,,,,,,,,,,,,,,,,,,,,,,,,,,,,,,,,,,,,,,,,,,,,,,,,,,,,,,,,,,,,,,,,,,,,626.7464953999734,None,625.7463992000557,626.7464953999734,624.7631278000772,625.7630110000027,627.7632278600008,None,627.7596914999885,630.2466595000587,627.7596914999885,630.2466595000587,630.2645100000082,None,1,1,0.6350213999394327,630.2645100000082,None,,,,,,,,,,,,,,001,2021_Jan_23_1426,GuessTheSound,2020.2.10,60.02912613015317,
Initial/Repeat/Howl.wav,1,,,,,0,97,97,97,,,,,,,,,,,,,,,,,,,,,,,,,,,,,,,,,,,,,,,,,,,,,,,,,,,,,,,,,,,,,,,,,,,,,,,,,,,,,,632.9133154000156,None,631.9131209000479,632.9133154000156,630.9300409000134,631.9297610999784,633.9299706600373,None,633.9265867000213,None,633.9265867000213,None,636.1803367000539,None,1,1,0.38364800007548183,636.1803367000539,None,,,,,,,,,,,,,,001,2021_Jan_23_1426,GuessTheSound,2020.2.10,60.02912613015317,
Goat_C.wav,2,,,,,0,98,98,98,,,,,,,,,,,,,,,,,,,,,,,,,,,,,,,,,,,,,,,,,,,,,,,,,,,,,,,,,,,,,,,,,,,,,,,,,,,,,,638.5628986000083,None,637.5629367000656,638.5628986000083,636.5794596000342,637.5795700000599,639.5795537600293,None,639.5828523000237,640.8965154000325,639.5828523000237,640.8965154000325,640.9139944000635,None,2,1,1.0303122999612242,640.9139944000635,None,,,,,,,,,,,,,,001,2021_Jan_23_1426,GuessTheSound,2020.2.10,60.02912613015317,
Initial/NoRepeat/Faucet_A.wav,1,,,,,0,99,99,99,,,,,,,,,,,,,,,,,,,,,,,,,,,,,,,,,,,,,,,,,,,,,,,,,,,,,,,,,,,,,,,,,,,,,,,,,,,,,,643.9466422999976,None,642.9466178000439,643.9466422999976,641.9638461000286,642.962886900059,644.9629983600694,None,644.9603601000272,None,644.9603601000272,None,646.9468050000723,None,1,1,0.9220741000026464,646.9468050000723,None,,,,,,,,,,,,,,001,2021_Jan_23_1426,GuessTheSound,2020.2.10,60.02912613015317,
Whistle_B.wav,2,,,,,0,100,100,100,,,,,,,,,,,,,,,,,,,,,,,,,,,,,,,,,,,,,,,,,,,,,,,,,,,,,,,,,,,,,,,,,,,,,,,,,,,,,,649.8795142000308,None,648.8791308000218,649.8795142000308,647.8957718000747,648.8957962000277,650.9114808599929,None,650.9089416000061,None,650.9089416000061,None,653.1460224000039,None,2,1,0.7283438999438658,653.1460224000039,None,,,,,,,,,,,,,,001,2021_Jan_23_1426,GuessTheSound,2020.2.10,60.02912613015317,
Growl_D.wav,2,,,,,0,101,101,101,,,,,,,,,,,,,,,,,,,,,,,,,,,,,,,,,,,,,,,,,,,,,,,,,,,,,,,,,,,,,,,,,,,,,,,,,,,,,,655.8789837000659,None,654.8787500000326,655.8789837000659,653.895142500056,654.8955577000743,656.8960828599752,None,656.89977680007,659.3130303999642,656.89977680007,659.3130303999642,659.3472980000079,None,2,1,0.8190017000306398,659.3472980000079,None,,,,,,,,,,,,,,001,2021_Jan_23_1426,GuessTheSound,2020.2.10,60.02912613015317,
Initial/NoRepeat/Footsteps_B.wav,3,,,,,0,102,102,102,,,,,,,,,,,,,,,,,,,,,,,,,,,,,,,,,,,,,,,,,,,,,,,,,,,,,,,,,,,,,,,,,,,,,,,,,,,,,,662.1796774000395,None,661.1795863000443,662.1796774000395,660.1972206999781,661.1963398000225,663.1961943600559,None,663.2000757000642,None,663.2000757000642,None,665.363805299974,None,3,1,2.346360299969092,665.363805299974,None,,,,,,,,,,,,,,001,2021_Jan_23_1426,GuessTheSound,2020.2.10,60.02912613015317,
Phone_D.wav,2,,,,,0,103,103,103,,,,,,,,,,,,,,,,,,,,,,,,,,,,,,,,,,,,,,,,,,,,,,,,,,,,,,,,,,,,,,,,,,,,,,,,,,,,,,669.7128337000031,None,668.7125077999663,669.7128337000031,667.7293569999747,668.7290688999929,670.7295094600645,None,670.7385328999953,672.7793325000675,670.7385328999953,672.7793325000675,672.7971831000177,None,2,1,1.034395300084725,672.7971831000177,None,,,,,,,,,,,,,,001,2021_Jan_23_1426,GuessTheSound,2020.2.10,60.02912613015317,
Test/Foils/Bullfrog.wav,1,,,,,0,104,104,104,,,,,,,,,,,,,,,,,,,,,,,,,,,,,,,,,,,,,,,,,,,,,,,,,,,,,,,,,,,,,,,,,,,,,,,,,,,,,,675.8292978999671,None,674.8457887000404,675.8464452000335,673.8480284999823,674.8624570000684,676.8460789600153,None,676.8403252999997,679.395878600073,676.8403252999997,679.395878600073,679.4135357000632,None,1,1,0.6878187999827787,679.4135357000632,None,,,,,,,,,,,,,,001,2021_Jan_23_1426,GuessTheSound,2020.2.10,60.02912613015317,
Initial/Repeat/Howl.wav,1,,,,,0,105,105,105,,,,,,,,,,,,,,,,,,,,,,,,,,,,,,,,,,,,,,,,,,,,,,,,,,,,,,,,,,,,,,,,,,,,,,,,,,,,,,682.1129378000041,None,681.1129948999733,682.1129378000041,680.1309526000405,681.1465059000766,683.1295451600104,None,683.1270181,None,683.1270181,None,685.3799703000113,None,2,0,0.9922557999379933,685.3799703000113,None,,,,,,,,,,,,,,001,2021_Jan_23_1426,GuessTheSound,2020.2.10,60.02912613015317,
Initial/NoRepeat/Thunder_A.wav,1,,,,,0,106,106,106,,,,,,,,,,,,,,,,,,,,,,,,,,,,,,,,,,,,,,,,,,,,,,,,,,,,,,,,,,,,,,,,,,,,,,,,,,,,,,688.3791499000508,None,687.3795274000149,688.3791499000508,686.3960910000606,687.3959308000049,689.3958600600249,None,689.3951059000101,691.8790432000533,689.3951059000101,691.8790432000533,691.8968759999843,None,1,1,0.4571880999719724,691.8968759999843,None,,,,,,,,,,,,,,001,2021_Jan_23_1426,GuessTheSound,2020.2.10,60.02912613015317,
Whistle_C.wav,2,,,,,0,107,107,107,,,,,,,,,,,,,,,,,,,,,,,,,,,,,,,,,,,,,,,,,,,,,,,,,,,,,,,,,,,,,,,,,,,,,,,,,,,,,,694.3627242000075,None,693.3627695000032,694.3627242000075,692.3835010000039,693.3957348000258,695.3794504599878,None,695.384489200078,None,695.384489200078,None,697.6295760000357,None,2,1,1.1447501999791712,697.6295760000357,None,,,,,,,,,,,,,,001,2021_Jan_23_1426,GuessTheSound,2020.2.10,60.02912613015317,
Initial/NoRepeat/Faucet_A.wav,1,,,,,0,108,108,108,,,,,,,,,,,,,,,,,,,,,,,,,,,,,,,,,,,,,,,,,,,,,,,,,,,,,,,,,,,,,,,,,,,,,,,,,,,,,,700.7787012000335,None,699.778780600056,700.7787012000335,698.7955383000663,699.7961886000121,701.7959290599915,None,701.7907337000361,None,701.7907337000361,None,703.7800137000158,None,1,1,0.6146306999726221,703.7800137000158,None,,,,,,,,,,,,,,001,2021_Jan_23_1426,GuessTheSound,2020.2.10,60.02912613015317,
,,,,,,,,,,,,,,,,,,,,,,,,,,,,,,,,,,,,,,,,,,,,,,,,,,,,,,,,,,,,,,,,,,,,,,,,,,,,,,,,,,,,,,,,,,,,,,,,,,,,,,,,,,704.4810616000323,None,704.4810616000323,None,704.4810616000323,None,space,2.644530100049451,704.4810616000323,None,,,,001,2021_Jan_23_1426,GuessTheSound,2020.2.10,60.02912613015317,
,,,,,,,,,,,,,,,,,,,,,,,,,,,,,,,,,,,,,,,,,,,,,,,,,,,,,,,,,,,,,,,,,,,,,,,,,,,,,,,,,,,,,,,,,,,,,,,,,,,,,,,,,,,,,,,,,,,,704.4810616000323,None,,,,,,,
