File,Correct,SoundFile5,Type,trials_2.thisRepN,trials_2.thisTrialN,trials_2.thisN,trials_2.thisIndex,PracticeTrials.thisRepN,PracticeTrials.thisTrialN,PracticeTrials.thisN,PracticeTrials.thisIndex,trials.thisRepN,trials.thisTrialN,trials.thisN,trials.thisIndex,InstructionTxt.started,InstructionTxt.stopped,WelcomContinue.started,WelcomContinue.stopped,VolumeBeginTxt.started,VolumeBeginTxt.stopped,VolumeContinueKey.keys,VolumeContinueKey.rt,VolumeContinueKey.started,VolumeContinueKey.stopped,text.started,text.stopped,Music.started,Music.stopped,AdjustContinue.started,AdjustContinue.stopped,HeadphoneCheckBeing.started,HeadphoneCheckBeing.stopped,HeadphoneContinue.started,HeadphoneContinue.stopped,HeadphoneContinueKey.keys,HeadphoneContinueKey.rt,HeadphoneContinueKey.started,HeadphoneContinueKey.stopped,CheckSound.started,CheckSound.stopped,QuestionTxt.started,QuestionTxt.stopped,CheckTrial.started,CheckTrial.stopped,CrossHeadphone.started,CrossHeadphone.stopped,CheckResp.keys,CheckResp.corr,CheckResp.rt,CheckResp.started,CheckResp.stopped,FeedbackTxt.started,FeedbackTxt.stopped,text_3.started,text_3.stopped,text_4.started,text_4.stopped,key_resp_2.keys,key_resp_2.rt,key_resp_2.started,key_resp_2.stopped,text_5.started,text_5.stopped,text_6.started,text_6.stopped,key_resp_3.keys,key_resp_3.rt,key_resp_3.started,key_resp_3.stopped,InstructionTxt2.started,InstructionTxt2.stopped,WelcomeContinue2.started,WelcomeContinue2.stopped,WelcomeContinueKey2.keys,WelcomeContinueKey2.rt,WelcomeContinueKey2.started,WelcomeContinueKey2.stopped,TrialNumber.started,TrialNumber.stopped,PracticeSound.started,PracticeSound.stopped,PracticeCross.started,PracticeCross.stopped,Practice_resp.keys,Practice_resp.corr,Practice_resp.rt,Practice_resp.started,Practice_resp.stopped,PracticeMssg.started,PracticeMssg.stopped,FeedbackCross.started,FeedbackCross.stopped,Continue.started,Continue.stopped,Options.started,Options.stopped,FeedbackMssg.started,FeedbackMssg.stopped,StartTxt.started,StartTxt.stopped,StartTast.keys,StartTast.rt,StartTast.started,StartTast.stopped,ContinueStart.started,ContinueStart.stopped,no_3.started,no_3.stopped,TargetSound.started,TargetSound.stopped,Cross.started,Cross.stopped,ItemNumber.started,ItemNumber.stopped,text_2.started,text_2.stopped,key_resp.keys,key_resp.corr,key_resp.rt,key_resp.started,key_resp.stopped,participant,session,date,expName,psychopyVersion,frameRate,
,,,,,,,,,,,,,,,,8.94048260001,None,8.94048260001,None,10.609365899988916,None,space,4.050661299959756,10.609365899988916,None,,,,,,,,,,,,,,,,,,,,,,,,,,,,,,,,,,,,,,,,,,,,,,,,,,,,,,,,,,,,,,,,,,,,,,,,,,,,,,,,,,,,,,,,,,,,,,,,,,,001,2021_Feb_14_1941,GuessTheSound,2020.2.10,60.015147819879125,
,,,,,,,,,,,,,,,,,,,,,,,,,,14.69632869999623,None,14.692849340022075,None,14.69632869999623,None,15.42582509998465,None,15.42582509998465,None,space,1.2918250000220723,15.42582509998465,None,,,,,,,,,,,,,,,,,,,,,,,,,,,,,,,,,,,,,,,,,,,,,,,,,,,,,,,,,,,,,,,,,,,,,,,,,,,,,,,,,,,,,001,2021_Feb_14_1941,GuessTheSound,2020.2.10,60.015147819879125,
Headphone/t1_1.wav,1,,,0,0,0,0,,,,,,,,,,,,,,,,,,,,,,,,,,,,,,,,,16.79231988001848,None,21.325473700009752,None,16.782818200008478,21.325473700009752,16.782818200008478,21.325473700009752,2,0,1.0091188999940641,21.325473700009752,None,22.359282699995674,None,,,,,,,,,,,,,,,,,,,,,,,,,,,,,,,,,,,,,,,,,,,,,,,,,,,,,,,,,,,,,,,,,,,,,,001,2021_Feb_14_1941,GuessTheSound,2020.2.10,60.015147819879125,
Headphone/t3_1.wav,3,,,0,1,1,4,,,,,,,,,,,,,,,,,,,,,,,,,,,,,,,,,23.358634769998027,None,27.892086300009396,None,23.35831069998676,27.90886009996757,23.35831069998676,27.90886009996757,3,1,0.5912906999583356,27.892086300009396,None,28.508230899984483,None,,,,,,,,,,,,,,,,,,,,,,,,,,,,,,,,,,,,,,,,,,,,,,,,,,,,,,,,,,,,,,,,,,,,,,001,2021_Feb_14_1941,GuessTheSound,2020.2.10,60.015147819879125,
Headphone/t2_1.wav,2,,,0,2,2,2,,,,,,,,,,,,,,,,,,,,,,,,,,,,,,,,,29.508327170007398,None,34.04197249998106,None,29.510344800015446,34.05848649999825,29.510344800015446,34.05848649999825,1,0,1.5801702000317164,34.04197249998106,None,35.64175070001511,None,,,,,,,,,,,,,,,,,,,,,,,,,,,,,,,,,,,,,,,,,,,,,,,,,,,,,,,,,,,,,,,,,,,,,,001,2021_Feb_14_1941,GuessTheSound,2020.2.10,60.015147819879125,
Headphone/t1_2.wav,1,,,0,3,3,1,,,,,,,,,,,,,,,,,,,,,,,,,,,,,,,,,36.64142367001623,None,41.175196299969684,None,36.641388099989854,41.175196299969684,36.641388099989854,41.175196299969684,2,0,0.3577044999692589,41.175196299969684,None,41.55822800000897,None,,,,,,,,,,,,,,,,,,,,,,,,,,,,,,,,,,,,,,,,,,,,,,,,,,,,,,,,,,,,,,,,,,,,,,001,2021_Feb_14_1941,GuessTheSound,2020.2.10,60.015147819879125,
Headphone/t2_2.wav,2,,,0,4,4,3,,,,,,,,,,,,,,,,,,,,,,,,,,,,,,,,,42.55841716998257,None,47.09180529997684,None,42.558197500009555,47.09180529997684,42.558197500009555,47.09180529997684,3,0,0.5275234999717213,47.09180529997684,None,47.64142080000602,None,,,,,,,,,,,,,,,,,,,,,,,,,,,,,,,,,,,,,,,,,,,,,,,,,,,,,,,,,,,,,,,,,,,,,,001,2021_Feb_14_1941,GuessTheSound,2020.2.10,60.015147819879125,
Headphone/t3_2.wav,3,,,0,5,5,5,,,,,,,,,,,,,,,,,,,,,,,,,,,,,,,,,48.64174916999182,None,53.17517100000987,None,48.64819370000623,53.19175160001032,48.64819370000623,53.19175160001032,1,0,1.524620899988804,53.17517100000987,None,54.724934400001075,None,,,,,,,,,,,,,,,,,,,,,,,,,,,,,,,,,,,,,,,,,,,,,,,,,,,,,,,,,,,,,,,,,,,,,,001,2021_Feb_14_1941,GuessTheSound,2020.2.10,60.015147819879125,
,,,,,,,,,,,,,,,,,,,,,,,,,,,,,,,,,,,,,,,,,,,,,,,,,,,,,,,55.72613480000291,None,55.72613480000291,None,space,7.14184060000116,55.72613480000291,None,,,,,,,,,,,,,,,,,,,,,,,,,,,,,,,,,,,,,,,,,,,,,,,,,,,,,,,,,,,,,,001,2021_Feb_14_1941,GuessTheSound,2020.2.10,60.015147819879125,
,,,,,,,,,,,,,,,,,,,,,,,,,,,,,,,,,,,,,,,,,,,,,,,,,,,,,,,,,,,,,,,62.89222380000865,None,62.89222380000865,None,space,23.524008099979255,62.89222380000865,None,,,,,,,,,,,,,,,,,,,,,,,,,,,,,,,,,,,,,,,,,,,,,,,,,,,,,,001,2021_Feb_14_1941,GuessTheSound,2020.2.10,60.015147819879125,
,,,,,,,,,,,,,,,,,,,,,,,,,,,,,,,,,,,,,,,,,,,,,,,,,,,,,,,,,,,,,,,,,,,,,,,86.44164749997435,None,86.44164749997435,None,space,1.4164957999601029,86.44164749997435,None,,,,,,,,,,,,,,,,,,,,,,,,,,,,,,,,,,,,,,,,,,,,,,001,2021_Feb_14_1941,GuessTheSound,2020.2.10,60.015147819879125,
,2,Practice/Seagull_A.wav,NEW,,,,,0,0,0,0,,,,,,,,,,,,,,,,,,,,,,,,,,,,,,,,,,,,,,,,,,,,,,,,,,,,,,,,,,,,,,,,,,,,87.90387520001968,None,87.90860020999098,None,87.90387520001968,None,2,1,1.7087501999922097,90.17555609997362,None,90.17555609997362,None,90.17555609997362,None,90.17555609997362,None,90.17555609997362,None,91.90750689996639,None,,,,,,,,,,,,,,,,,,,,,,,,,001,2021_Feb_14_1941,GuessTheSound,2020.2.10,60.015147819879125,
,2,Practice/Skid_B.wav,NEW,,,,,0,1,1,1,,,,,,,,,,,,,,,,,,,,,,,,,,,,,,,,,,,,,,,,,,,,,,,,,,,,,,,,,,,,,,,,,,,,92.90816280001309,95.00788150000153,92.90770256998948,None,92.90816280001309,95.00788150000153,2,1,0.5942280999734066,95.0250147000188,None,95.0250147000188,None,95.0250147000188,None,95.0250147000188,None,95.0250147000188,None,95.64189660002012,None,,,,,,,,,,,,,,,,,,,,,,,,,001,2021_Feb_14_1941,GuessTheSound,2020.2.10,60.015147819879125,
,1,Practice/Seagull_A.wav,OLD,,,,,0,2,2,2,,,,,,,,,,,,,,,,,,,,,,,,,,,,,,,,,,,,,,,,,,,,,,,,,,,,,,,,,,,,,,,,,,,,96.65696069999831,None,96.65814723998773,None,96.65696069999831,None,1,1,0.5272667999961413,98.9505596999661,None,98.9505596999661,None,98.9505596999661,None,98.9505596999661,None,98.9505596999661,None,99.50794179999502,None,,,,,,,,,,,,,,,,,,,,,,,,,001,2021_Feb_14_1941,GuessTheSound,2020.2.10,60.015147819879125,
,2,Practice/Gargle_A.wav,NEW,,,,,0,3,3,3,,,,,,,,,,,,,,,,,,,,,,,,,,,,,,,,,,,,,,,,,,,,,,,,,,,,,,,,,,,,,,,,,,,,100.52294569998048,None,100.5245529399719,None,100.52294569998048,None,2,1,0.4576243999763392,102.80999400001019,None,102.80999400001019,None,102.80999400001019,None,102.80999400001019,None,102.80999400001019,None,103.29135710000992,None,,,,,,,,,,,,,,,,,,,,,,,,,001,2021_Feb_14_1941,GuessTheSound,2020.2.10,60.015147819879125,
,2,Practice/Gargle_B.wav,SIMILAR,,,,,0,4,4,4,,,,,,,,,,,,,,,,,,,,,,,,,,,,,,,,,,,,,,,,,,,,,,,,,,,,,,,,,,,,,,,,,,,,104.30892889999086,None,104.30804954002377,None,104.30892889999086,None,2,1,0.6865610999520868,106.38485510001192,None,106.38485510001192,None,106.38485510001192,None,106.38485510001192,None,106.38485510001192,None,107.09144669998204,None,,,,,,,,,,,,,,,,,,,,,,,,,001,2021_Feb_14_1941,GuessTheSound,2020.2.10,60.015147819879125,
,,,,,,,,,,,,,,,,,,,,,,,,,,,,,,,,,,,,,,,,,,,,,,,,,,,,,,,,,,,,,,,,,,,,,,,,,,,,,,,,,,,,,,,,,,,,,,,,,,,,108.09418630000437,None,space,1.8589538999949582,108.09418630000437,None,,,,,,,,,,,,,,,,,,,001,2021_Feb_14_1941,GuessTheSound,2020.2.10,60.015147819879125,
,2,Initial/Doubled/CarStart_A.wav,NEW,,,,,,,,,0,0,0,0,,,,,,,,,,,,,,,,,,,,,,,,,,,,,,,,,,,,,,,,,,,,,,,,,,,,,,,,,,,,,,,,,,,,,,,,,,,,,,,,,,,,,,,,,,,108.09418630000437,None,110.06326269998681,None,111.50799904000013,None,111.50805249996483,None,111.50805249996483,None,114.0088478999678,None,2,1,0.8849905999959446,114.0088478999678,None,,001,2021_Feb_14_1941,GuessTheSound,2020.2.10,60.015147819879125,
,2,Initial/Doubled/Clap_A.wav,NEW,,,,,,,,,0,1,1,1,,,,,,,,,,,,,,,,,,,,,,,,,,,,,,,,,,,,,,,,,,,,,,,,,,,,,,,,,,,,,,,,,,,,,,,,,,,,,,,,,,,,,,,,,,,,,114.92795450001722,None,116.44136957000009,None,116.45067390002077,None,116.45067390002077,None,118.95849789999193,None,2,1,0.6503380000358447,118.95849789999193,None,,001,2021_Feb_14_1941,GuessTheSound,2020.2.10,60.015147819879125,
,2,Initial/Doubled/Cuckoo_A.wav,NEW,,,,,,,,,0,2,2,2,,,,,,,,,,,,,,,,,,,,,,,,,,,,,,,,,,,,,,,,,,,,,,,,,,,,,,,,,,,,,,,,,,,,,,,,,,,,,,,,,,,,,,,,,,,,,119.6245404999936,None,121.14100103998788,None,121.13582119997591,None,121.13582119997591,None,123.62469169998076,None,2,1,0.040974700008518994,123.62469169998076,None,,001,2021_Feb_14_1941,GuessTheSound,2020.2.10,60.015147819879125,
,2,Initial/Doubled/Chomp_A.wav,NEW,,,,,,,,,0,3,3,3,,,,,,,,,,,,,,,,,,,,,,,,,,,,,,,,,,,,,,,,,,,,,,,,,,,,,,,,,,,,,,,,,,,,,,,,,,,,,,,,,,,,,,,,,,,,,123.69108329998562,None,125.20779633998171,None,125.20305399998324,None,125.20305399998324,None,127.70854459999828,None,2,1,0.5751636000350118,127.70854459999828,None,,001,2021_Feb_14_1941,GuessTheSound,2020.2.10,60.015147819879125,
,2,Initial/NoRepeat/Toilet_B.wav,NEW,,,,,,,,,0,4,4,4,,,,,,,,,,,,,,,,,,,,,,,,,,,,,,,,,,,,,,,,,,,,,,,,,,,,,,,,,,,,,,,,,,,,,,,,,,,,,,,,,,,,,,,,,,,,,128.3085275000194,None,129.82433303997385,None,129.8200050999876,None,129.8200050999876,None,132.32480379997287,None,2,1,0.4530934999929741,132.32480379997287,None,,001,2021_Feb_14_1941,GuessTheSound,2020.2.10,60.015147819879125,
,2,Initial/Doubled/Piano_A.wav,NEW,,,,,,,,,0,5,5,5,,,,,,,,,,,,,,,,,,,,,,,,,,,,,,,,,,,,,,,,,,,,,,,,,,,,,,,,,,,,,,,,,,,,,,,,,,,,,,,,,,,,,,,,,,,,,132.80784339999082,None,134.32441703997318,None,134.32306309998967,None,134.32306309998967,None,136.8247356999782,None,2,1,0.37783569999737665,136.8247356999782,None,,001,2021_Feb_14_1941,GuessTheSound,2020.2.10,60.015147819879125,
,2,Initial/Doubled/Cat_A.wav,NEW,,,,,,,,,0,6,6,6,,,,,,,,,,,,,,,,,,,,,,,,,,,,,,,,,,,,,,,,,,,,,,,,,,,,,,,,,,,,,,,,,,,,,,,,,,,,,,,,,,,,,,,,,,,,,137.22435999999288,None,138.7412018399802,None,138.7455873999861,None,138.7455873999861,None,140.17454149998957,None,2,1,0.9884633999899961,140.17454149998957,None,,001,2021_Feb_14_1941,GuessTheSound,2020.2.10,60.015147819879125,
,1,Initial/Doubled/Clap_A.wav,OLD,,,,,,,,,0,7,7,7,,,,,,,,,,,,,,,,,,,,,,,,,,,,,,,,,,,,,,,,,,,,,,,,,,,,,,,,,,,,,,,,,,,,,,,,,,,,,,,,,,,,,,,,,,,,,141.1908861999982,None,142.70768273998982,None,142.70875390002038,None,142.70875390002038,None,145.20773590001045,None,1,1,0.4033544000121765,145.20773590001045,None,,001,2021_Feb_14_1941,GuessTheSound,2020.2.10,60.015147819879125,
,2,Initial/Repeat/Buzz.wav,NEW,,,,,,,,,0,8,8,8,,,,,,,,,,,,,,,,,,,,,,,,,,,,,,,,,,,,,,,,,,,,,,,,,,,,,,,,,,,,,,,,,,,,,,,,,,,,,,,,,,,,,,,,,,,,,145.64088129997253,None,147.15764773996779,None,147.158959399967,None,147.158959399967,None,149.45809209998697,None,2,1,0.32484680000925437,149.45809209998697,None,,001,2021_Feb_14_1941,GuessTheSound,2020.2.10,60.015147819879125,
,2,Initial/NoRepeat/Footsteps_B.wav,NEW,,,,,,,,,0,9,9,9,,,,,,,,,,,,,,,,,,,,,,,,,,,,,,,,,,,,,,,,,,,,,,,,,,,,,,,,,,,,,,,,,,,,,,,,,,,,,,,,,,,,,,,,,,,,,149.80858100001933,None,151.3409128399682,None,151.34063729998888,None,151.34063729998888,None,153.8412933999789,None,2,1,1.069870200008154,153.8412933999789,None,,001,2021_Feb_14_1941,GuessTheSound,2020.2.10,60.015147819879125,
,2,CarStart_D.wav,SIMILAR,,,,,,,,,0,10,10,10,,,,,,,,,,,,,,,,,,,,,,,,,,,,,,,,,,,,,,,,,,,,,,,,,,,,,,,,,,,,,,,,,,,,,,,,,,,,,,,,,,,,,,,,,,,,,154.94083199999295,None,156.45731114001245,None,156.45072510000318,None,156.45072510000318,None,158.95785679999972,None,2,1,2.1538457999704406,158.95785679999972,None,,001,2021_Feb_14_1941,GuessTheSound,2020.2.10,60.015147819879125,
,2,Initial/Repeat/Whistle_A.wav,NEW,,,,,,,,,0,11,11,11,,,,,,,,,,,,,,,,,,,,,,,,,,,,,,,,,,,,,,,,,,,,,,,,,,,,,,,,,,,,,,,,,,,,,,,,,,,,,,,,,,,,,,,,,,,,,161.14063179999357,None,162.65758624002336,None,162.65411790000508,None,162.65411790000508,None,164.14092560001882,None,2,1,0.37745629996061325,164.14092560001882,None,,001,2021_Feb_14_1941,GuessTheSound,2020.2.10,60.015147819879125,
,1,Initial/Doubled/Cuckoo_A.wav,OLD,,,,,,,,,0,12,12,12,,,,,,,,,,,,,,,,,,,,,,,,,,,,,,,,,,,,,,,,,,,,,,,,,,,,,,,,,,,,,,,,,,,,,,,,,,,,,,,,,,,,,,,,,,,,,164.5406634999672,None,166.05751533997244,None,166.05397020000964,None,166.05397020000964,None,168.54096760001266,None,2,0,0.2787724999943748,168.54096760001266,None,,001,2021_Feb_14_1941,GuessTheSound,2020.2.10,60.015147819879125,
,2,Chomp_B.wav,SIMILAR,,,,,,,,,0,13,13,13,,,,,,,,,,,,,,,,,,,,,,,,,,,,,,,,,,,,,,,,,,,,,,,,,,,,,,,,,,,,,,,,,,,,,,,,,,,,,,,,,,,,,,,,,,,,,168.84101590001956,None,170.34044026999035,None,170.34953960002167,None,170.34953960002167,None,172.85785279999254,None,2,1,0.17835459997877479,172.85785279999254,None,,001,2021_Feb_14_1941,GuessTheSound,2020.2.10,60.015147819879125,
,2,Piano_B.wav,SIMILAR,,,,,,,,,0,14,14,14,,,,,,,,,,,,,,,,,,,,,,,,,,,,,,,,,,,,,,,,,,,,,,,,,,,,,,,,,,,,,,,,,,,,,,,,,,,,,,,,,,,,,,,,,,,,,173.05810769996606,None,174.5739259400172,None,174.57611530000577,None,174.57611530000577,None,177.09084620000795,None,2,1,0.6094499999890104,177.09084620000795,None,,001,2021_Feb_14_1941,GuessTheSound,2020.2.10,60.015147819879125,
,1,Initial/Repeat/Buzz.wav,OLD,,,,,,,,,0,15,15,15,,,,,,,,,,,,,,,,,,,,,,,,,,,,,,,,,,,,,,,,,,,,,,,,,,,,,,,,,,,,,,,,,,,,,,,,,,,,,,,,,,,,,,,,,,,,,177.7252214999753,None,179.24051426999503,None,179.24888909998117,None,179.24888909998117,None,181.55763419996947,None,1,1,0.08457159996032715,181.55763419996947,None,,001,2021_Feb_14_1941,GuessTheSound,2020.2.10,60.015147819879125,
,1,Initial/NoRepeat/Toilet_B.wav,OLD,,,,,,,,,0,16,16,16,,,,,,,,,,,,,,,,,,,,,,,,,,,,,,,,,,,,,,,,,,,,,,,,,,,,,,,,,,,,,,,,,,,,,,,,,,,,,,,,,,,,,,,,,,,,,181.65773969999282,None,183.17364923998247,None,183.16923250001855,None,183.16923250001855,None,185.67408719996456,None,1,1,0.42902719997800887,185.67408719996456,None,,001,2021_Feb_14_1941,GuessTheSound,2020.2.10,60.015147819879125,
,2,Whistle_B.wav,SIMILAR,,,,,,,,,0,17,17,17,,,,,,,,,,,,,,,,,,,,,,,,,,,,,,,,,,,,,,,,,,,,,,,,,,,,,,,,,,,,,,,,,,,,,,,,,,,,,,,,,,,,,,,,,,,,,186.1246315999888,None,187.6239490700187,None,187.63623820000794,None,187.63623820000794,None,190.1406806000159,None,1,0,1.2209232000168413,190.1406806000159,None,,001,2021_Feb_14_1941,GuessTheSound,2020.2.10,60.015147819879125,
,1,Initial/Doubled/Cat_A.wav,OLD,,,,,,,,,0,18,18,18,,,,,,,,,,,,,,,,,,,,,,,,,,,,,,,,,,,,,,,,,,,,,,,,,,,,,,,,,,,,,,,,,,,,,,,,,,,,,,,,,,,,,,,,,,,,,191.39030929998262,None,192.89027476999908,None,192.8989603999653,None,192.8989603999653,None,194.32402250001905,None,1,1,0.5334994999575429,194.32402250001905,None,,001,2021_Feb_14_1941,GuessTheSound,2020.2.10,60.015147819879125,
,1,Initial/NoRepeat/Footsteps_B.wav,OLD,,,,,,,,,0,19,19,19,,,,,,,,,,,,,,,,,,,,,,,,,,,,,,,,,,,,,,,,,,,,,,,,,,,,,,,,,,,,,,,,,,,,,,,,,,,,,,,,,,,,,,,,,,,,,194.87439730000915,None,196.3904473400209,None,196.38729199999943,None,196.38729199999943,None,198.89067449996946,None,1,1,0.459742599981837,198.89067449996946,None,,001,2021_Feb_14_1941,GuessTheSound,2020.2.10,60.015147819879125,
,2,CarStart_B.wav,SIMILAR,,,,,,,,,0,20,20,20,,,,,,,,,,,,,,,,,,,,,,,,,,,,,,,,,,,,,,,,,,,,,,,,,,,,,,,,,,,,,,,,,,,,,,,,,,,,,,,,,,,,,,,,,,,,,199.3743656000006,None,200.89056333997286,None,200.89048299996648,None,200.89048299996648,None,203.39005019998876,None,2,1,0.8251947000389919,203.39005019998876,None,,001,2021_Feb_14_1941,GuessTheSound,2020.2.10,60.015147819879125,
,1,Initial/Doubled/Cuckoo_A.wav,OLD,,,,,,,,,0,21,21,21,,,,,,,,,,,,,,,,,,,,,,,,,,,,,,,,,,,,,,,,,,,,,,,,,,,,,,,,,,,,,,,,,,,,,,,,,,,,,,,,,,,,,,,,,,,,,204.2401247000089,None,205.75679633998078,None,205.7541170999757,None,205.7541170999757,None,208.24052709998796,None,1,1,0.19630430004326627,208.24052709998796,None,,001,2021_Feb_14_1941,GuessTheSound,2020.2.10,60.015147819879125,
,1,Initial/Doubled/Clap_A.wav,OLD,,,,,,,,,0,22,22,22,,,,,,,,,,,,,,,,,,,,,,,,,,,,,,,,,,,,,,,,,,,,,,,,,,,,,,,,,,,,,,,,,,,,,,,,,,,,,,,,,,,,,,,,,,,,,208.45714720000979,None,209.97360433997818,None,209.9688459999743,None,209.9688459999743,None,212.47374509996735,None,1,1,0.3600484000053257,212.47374509996735,None,,001,2021_Feb_14_1941,GuessTheSound,2020.2.10,60.015147819879125,
,2,Chomp_C.wav,SIMILAR,,,,,,,,,0,23,23,23,,,,,,,,,,,,,,,,,,,,,,,,,,,,,,,,,,,,,,,,,,,,,,,,,,,,,,,,,,,,,,,,,,,,,,,,,,,,,,,,,,,,,,,,,,,,,212.85676250001416,None,214.37359894001855,None,214.37710360001074,None,214.37710360001074,None,216.89065700001083,None,2,1,0.49378810002235696,216.89065700001083,None,,001,2021_Feb_14_1941,GuessTheSound,2020.2.10,60.015147819879125,
,2,Initial/Repeat/Sneeze_B.wav,NEW,,,,,,,,,0,24,24,24,,,,,,,,,,,,,,,,,,,,,,,,,,,,,,,,,,,,,,,,,,,,,,,,,,,,,,,,,,,,,,,,,,,,,,,,,,,,,,,,,,,,,,,,,,,,,217.40801100002136,None,218.94059783999109,None,218.9394883000059,None,218.9394883000059,None,220.1739230999956,None,2,1,1.5419580000452697,220.1739230999956,None,,001,2021_Feb_14_1941,GuessTheSound,2020.2.10,60.015147819879125,
,1,Initial/NoRepeat/Toilet_B.wav,OLD,,,,,,,,,0,25,25,25,,,,,,,,,,,,,,,,,,,,,,,,,,,,,,,,,,,,,,,,,,,,,,,,,,,,,,,,,,,,,,,,,,,,,,,,,,,,,,,,,,,,,,,,,,,,,221.7399595999741,None,223.25663154000648,None,223.25336480000988,None,223.25336480000988,None,225.75739220000105,None,1,1,0.4239242999465205,225.75739220000105,None,,001,2021_Feb_14_1941,GuessTheSound,2020.2.10,60.015147819879125,
,2,Initial/NoRepeat/Helicopter_A.wav,NEW,,,,,,,,,0,26,26,26,,,,,,,,,,,,,,,,,,,,,,,,,,,,,,,,,,,,,,,,,,,,,,,,,,,,,,,,,,,,,,,,,,,,,,,,,,,,,,,,,,,,,,,,,,,,,226.20678999996744,None,227.72354573999763,None,227.7265322000021,None,227.7265322000021,None,230.17363320000004,None,2,1,0.3359402999631129,230.17363320000004,None,,001,2021_Feb_14_1941,GuessTheSound,2020.2.10,60.015147819879125,
,2,Piano_C.wav,SIMILAR,,,,,,,,,0,27,27,27,,,,,,,,,,,,,,,,,,,,,,,,,,,,,,,,,,,,,,,,,,,,,,,,,,,,,,,,,,,,,,,,,,,,,,,,,,,,,,,,,,,,,,,,,,,,,230.5399462999776,None,232.05649774002376,None,232.05880960001377,None,232.05880960001377,None,234.57357959996443,None,2,1,0.6249231999972835,234.57357959996443,None,,001,2021_Feb_14_1941,GuessTheSound,2020.2.10,60.015147819879125,
,1,Initial/Repeat/Buzz.wav,OLD,,,,,,,,,0,28,28,28,,,,,,,,,,,,,,,,,,,,,,,,,,,,,,,,,,,,,,,,,,,,,,,,,,,,,,,,,,,,,,,,,,,,,,,,,,,,,,,,,,,,,,,,,,,,,235.22268669999903,None,236.7229077699827,None,236.72279450000497,None,236.72279450000497,None,239.0236918000155,None,1,1,0.4001728000002913,239.0236918000155,None,,001,2021_Feb_14_1941,GuessTheSound,2020.2.10,60.015147819879125,
,2,Initial/NoRepeat/Snore_B.wav,NEW,,,,,,,,,0,29,29,29,,,,,,,,,,,,,,,,,,,,,,,,,,,,,,,,,,,,,,,,,,,,,,,,,,,,,,,,,,,,,,,,,,,,,,,,,,,,,,,,,,,,,,,,,,,,,239.4402143000043,None,240.95642973999492,None,240.96069209999405,None,240.96069209999405,None,243.37358070001937,None,2,1,0.9906110999872908,243.37358070001937,None,,001,2021_Feb_14_1941,GuessTheSound,2020.2.10,60.015147819879125,
,1,Initial/Doubled/Cat_A.wav,OLD,,,,,,,,,0,30,30,30,,,,,,,,,,,,,,,,,,,,,,,,,,,,,,,,,,,,,,,,,,,,,,,,,,,,,,,,,,,,,,,,,,,,,,,,,,,,,,,,,,,,,,,,,,,,,244.39007109997328,None,245.8898995699943,None,245.89943779999157,None,245.89943779999157,None,247.3235431999783,None,1,1,0.2747508000466041,247.3235431999783,None,,001,2021_Feb_14_1941,GuessTheSound,2020.2.10,60.015147819879125,
,2,Initial/Doubled/Laugh_A.wav,NEW,,,,,,,,,0,31,31,31,,,,,,,,,,,,,,,,,,,,,,,,,,,,,,,,,,,,,,,,,,,,,,,,,,,,,,,,,,,,,,,,,,,,,,,,,,,,,,,,,,,,,,,,,,,,,247.6248123999685,None,249.15630024001,None,249.15005679999013,None,249.15005679999013,None,251.6568338999641,None,2,1,0.3244711000006646,251.6568338999641,None,,001,2021_Feb_14_1941,GuessTheSound,2020.2.10,60.015147819879125,
,1,Initial/NoRepeat/Footsteps_B.wav,OLD,,,,,,,,,0,32,32,32,,,,,,,,,,,,,,,,,,,,,,,,,,,,,,,,,,,,,,,,,,,,,,,,,,,,,,,,,,,,,,,,,,,,,,,,,,,,,,,,,,,,,,,,,,,,,252.00695359997917,None,253.52318874000338,None,253.51768410002114,None,253.51768410002114,None,256.02340609999374,None,2,0,1.0169639000087045,256.02340609999374,None,,001,2021_Feb_14_1941,GuessTheSound,2020.2.10,60.015147819879125,
,2,Whistle_C.wav,SIMILAR,,,,,,,,,0,33,33,33,,,,,,,,,,,,,,,,,,,,,,,,,,,,,,,,,,,,,,,,,,,,,,,,,,,,,,,,,,,,,,,,,,,,,,,,,,,,,,,,,,,,,,,,,,,,,257.05700580001576,None,258.57313034001277,None,258.5679452000186,None,258.5679452000186,None,261.07332009996753,None,1,0,1.5628576999879442,261.07332009996753,None,,001,2021_Feb_14_1941,GuessTheSound,2020.2.10,60.015147819879125,
,2,Initial/Repeat/Pour.wav,NEW,,,,,,,,,0,34,34,34,,,,,,,,,,,,,,,,,,,,,,,,,,,,,,,,,,,,,,,,,,,,,,,,,,,,,,,,,,,,,,,,,,,,,,,,,,,,,,,,,,,,,,,,,,,,,262.6564219999709,None,264.1730625399971,None,264.17853109998396,None,264.17853109998396,None,266.69013910001377,None,2,1,0.6936698000063188,266.69013910001377,None,,001,2021_Feb_14_1941,GuessTheSound,2020.2.10,60.015147819879125,
,2,Initial/NoRepeat/Thunder_A.wav,NEW,,,,,,,,,0,35,35,35,,,,,,,,,,,,,,,,,,,,,,,,,,,,,,,,,,,,,,,,,,,,,,,,,,,,,,,,,,,,,,,,,,,,,,,,,,,,,,,,,,,,,,,,,,,,,267.40620690002106,None,268.92246373997773,None,268.9175215999712,None,268.9175215999712,None,271.42316589999245,None,2,1,0.5075570000335574,271.42316589999245,None,,001,2021_Feb_14_1941,GuessTheSound,2020.2.10,60.015147819879125,
,1,Initial/Repeat/Sneeze_B.wav,OLD,,,,,,,,,0,36,36,36,,,,,,,,,,,,,,,,,,,,,,,,,,,,,,,,,,,,,,,,,,,,,,,,,,,,,,,,,,,,,,,,,,,,,,,,,,,,,,,,,,,,,,,,,,,,,271.9560763000045,None,273.4562319700141,None,273.4672470999649,None,273.4672470999649,None,274.6898289999808,None,1,1,0.39223360002506524,274.6898289999808,None,,001,2021_Feb_14_1941,GuessTheSound,2020.2.10,60.015147819879125,
,2,Test/Foils/Camera.wav,NEW,,,,,,,,,0,37,37,37,,,,,,,,,,,,,,,,,,,,,,,,,,,,,,,,,,,,,,,,,,,,,,,,,,,,,,,,,,,,,,,,,,,,,,,,,,,,,,,,,,,,,,,,,,,,,275.1072640999919,None,276.62288503999594,None,276.6238193999743,None,276.6238193999743,None,277.5898961999919,None,2,1,0.8632375000161119,277.5898961999919,None,,001,2021_Feb_14_1941,GuessTheSound,2020.2.10,60.015147819879125,
,1,Initial/NoRepeat/Helicopter_A.wav,OLD,,,,,,,,,0,38,38,38,,,,,,,,,,,,,,,,,,,,,,,,,,,,,,,,,,,,,,,,,,,,,,,,,,,,,,,,,,,,,,,,,,,,,,,,,,,,,,,,,,,,,,,,,,,,,278.47636929998407,None,279.989545270009,None,279.9998915999895,None,279.9998915999895,None,282.45673249999527,None,2,0,0.6361505000386387,282.45673249999527,None,,001,2021_Feb_14_1941,GuessTheSound,2020.2.10,60.015147819879125,
,1,Initial/NoRepeat/Snore_B.wav,OLD,,,,,,,,,0,39,39,39,,,,,,,,,,,,,,,,,,,,,,,,,,,,,,,,,,,,,,,,,,,,,,,,,,,,,,,,,,,,,,,,,,,,,,,,,,,,,,,,,,,,,,,,,,,,,283.12278029997833,None,284.6394423399936,None,284.63624590000836,None,284.63624590000836,None,287.0564048999804,None,1,1,0.3589564999565482,287.0564048999804,None,,001,2021_Feb_14_1941,GuessTheSound,2020.2.10,60.015147819879125,
,2,Initial/Repeat/ManWhistle.wav,NEW,,,,,,,,,0,40,40,40,,,,,,,,,,,,,,,,,,,,,,,,,,,,,,,,,,,,,,,,,,,,,,,,,,,,,,,,,,,,,,,,,,,,,,,,,,,,,,,,,,,,,,,,,,,,,287.4394936999888,None,288.9559422400082,None,288.96356910001487,None,288.96356910001487,None,291.18985119997524,None,2,1,0.9065807000151835,291.18985119997524,None,,001,2021_Feb_14_1941,GuessTheSound,2020.2.10,60.015147819879125,
,2,Laugh_C.wav,SIMILAR,,,,,,,,,0,41,41,41,,,,,,,,,,,,,,,,,,,,,,,,,,,,,,,,,,,,,,,,,,,,,,,,,,,,,,,,,,,,,,,,,,,,,,,,,,,,,,,,,,,,,,,,,,,,,292.1226862000185,None,293.63934053997514,None,293.64679650001926,None,293.64679650001926,None,296.1565079999855,None,2,1,0.707890400022734,296.1565079999855,None,,001,2021_Feb_14_1941,GuessTheSound,2020.2.10,60.015147819879125,
,2,Pour_D.wav,SIMILAR,,,,,,,,,0,42,42,42,,,,,,,,,,,,,,,,,,,,,,,,,,,,,,,,,,,,,,,,,,,,,,,,,,,,,,,,,,,,,,,,,,,,,,,,,,,,,,,,,,,,,,,,,,,,,296.89032499998575,None,298.4226102099754,None,298.42070830002194,None,298.42070830002194,None,300.922893800016,None,1,0,0.758828199992422,300.922893800016,None,,001,2021_Feb_14_1941,GuessTheSound,2020.2.10,60.015147819879125,
,2,Initial/Repeat/Howl.wav,NEW,,,,,,,,,0,43,43,43,,,,,,,,,,,,,,,,,,,,,,,,,,,,,,,,,,,,,,,,,,,,,,,,,,,,,,,,,,,,,,,,,,,,,,,,,,,,,,,,,,,,,,,,,,,,,301.7074520000024,None,303.2560399099719,None,303.25737279996974,None,303.25737279996974,None,305.7563591999933,None,2,1,0.49873330001719296,305.7563591999933,None,,001,2021_Feb_14_1941,GuessTheSound,2020.2.10,60.015147819879125,
,2,Initial/Repeat/PaperRip.wav,NEW,,,,,,,,,0,44,44,44,,,,,,,,,,,,,,,,,,,,,,,,,,,,,,,,,,,,,,,,,,,,,,,,,,,,,,,,,,,,,,,,,,,,,,,,,,,,,,,,,,,,,,,,,,,,,306.2731871000142,None,307.7892055400182,None,307.7933835000149,None,307.7933835000149,None,309.38973070000065,None,2,1,1.3252745000063442,309.38973070000065,None,,001,2021_Feb_14_1941,GuessTheSound,2020.2.10,60.015147819879125,
,1,Initial/NoRepeat/Thunder_A.wav,OLD,,,,,,,,,0,45,45,45,,,,,,,,,,,,,,,,,,,,,,,,,,,,,,,,,,,,,,,,,,,,,,,,,,,,,,,,,,,,,,,,,,,,,,,,,,,,,,,,,,,,,,,,,,,,,310.7406042999937,None,312.2562372699846,None,312.2670893999748,None,312.2670893999748,None,314.7729314999888,None,2,0,0.6824176000081934,314.7729314999888,None,,001,2021_Feb_14_1941,GuessTheSound,2020.2.10,60.015147819879125,
,2,Laugh_D.wav,SIMILAR,,,,,,,,,0,46,46,46,,,,,,,,,,,,,,,,,,,,,,,,,,,,,,,,,,,,,,,,,,,,,,,,,,,,,,,,,,,,,,,,,,,,,,,,,,,,,,,,,,,,,,,,,,,,,315.4745462000137,None,317.0055786400219,None,317.007852300012,None,317.007852300012,None,319.52271140000084,None,2,1,0.22686970001086593,319.52271140000084,None,,001,2021_Feb_14_1941,GuessTheSound,2020.2.10,60.015147819879125,
,1,Test/Foils/Camera.wav,OLD,,,,,,,,,0,47,47,47,,,,,,,,,,,,,,,,,,,,,,,,,,,,,,,,,,,,,,,,,,,,,,,,,,,,,,,,,,,,,,,,,,,,,,,,,,,,,,,,,,,,,,,,,,,,,319.7740529999719,None,321.28907516996844,None,321.2955622000154,None,321.2955622000154,None,322.256181499979,None,1,1,0.4497230999986641,322.256181499979,None,,001,2021_Feb_14_1941,GuessTheSound,2020.2.10,60.015147819879125,
,1,Initial/NoRepeat/Snore_B.wav,OLD,,,,,,,,,0,48,48,48,,,,,,,,,,,,,,,,,,,,,,,,,,,,,,,,,,,,,,,,,,,,,,,,,,,,,,,,,,,,,,,,,,,,,,,,,,,,,,,,,,,,,,,,,,,,,322.7224165999796,None,324.2390530399746,None,324.2333887999994,None,324.2333887999994,None,326.65607889997773,None,2,0,0.9211694999830797,326.65607889997773,None,,001,2021_Feb_14_1941,GuessTheSound,2020.2.10,60.015147819879125,
,2,ManWhistle_C.wav,SIMILAR,,,,,,,,,0,49,49,49,,,,,,,,,,,,,,,,,,,,,,,,,,,,,,,,,,,,,,,,,,,,,,,,,,,,,,,,,,,,,,,,,,,,,,,,,,,,,,,,,,,,,,,,,,,,,327.605727999995,None,329.1224618399749,None,329.12094639998395,None,329.12094639998395,None,330.6059502999997,None,2,1,0.4647883999859914,330.6059502999997,None,,001,2021_Feb_14_1941,GuessTheSound,2020.2.10,60.015147819879125,
,1,Initial/Repeat/Sneeze_B.wav,OLD,,,,,,,,,0,50,50,50,,,,,,,,,,,,,,,,,,,,,,,,,,,,,,,,,,,,,,,,,,,,,,,,,,,,,,,,,,,,,,,,,,,,,,,,,,,,,,,,,,,,,,,,,,,,,331.0889396999846,None,332.58884896998063,None,332.5976856999914,None,332.5976856999914,None,333.8224966999842,None,1,1,0.6784920000354759,333.8224966999842,None,,001,2021_Feb_14_1941,GuessTheSound,2020.2.10,60.015147819879125,
,1,Initial/Repeat/Howl.wav,OLD,,,,,,,,,0,51,51,51,,,,,,,,,,,,,,,,,,,,,,,,,,,,,,,,,,,,,,,,,,,,,,,,,,,,,,,,,,,,,,,,,,,,,,,,,,,,,,,,,,,,,,,,,,,,,334.523125000007,None,336.03917384000965,None,336.03574809996644,None,336.03574809996644,None,338.53918580000754,None,1,1,0.2801708999904804,338.53918580000754,None,,001,2021_Feb_14_1941,GuessTheSound,2020.2.10,60.015147819879125,
,1,Initial/NoRepeat/Helicopter_A.wav,OLD,,,,,,,,,0,52,52,52,,,,,,,,,,,,,,,,,,,,,,,,,,,,,,,,,,,,,,,,,,,,,,,,,,,,,,,,,,,,,,,,,,,,,,,,,,,,,,,,,,,,,,,,,,,,,338.83885349996854,None,340.3554312399822,None,340.349877599976,None,340.349877599976,None,342.8059916999773,None,1,1,0.8654513999936171,342.8059916999773,None,,001,2021_Feb_14_1941,GuessTheSound,2020.2.10,60.015147819879125,
,1,Initial/NoRepeat/Thunder_A.wav,OLD,,,,,,,,,0,53,53,53,,,,,,,,,,,,,,,,,,,,,,,,,,,,,,,,,,,,,,,,,,,,,,,,,,,,,,,,,,,,,,,,,,,,,,,,,,,,,,,,,,,,,,,,,,,,,343.68878779996885,None,345.2053422399797,None,345.2007183000096,None,345.2007183000096,None,347.70605490001617,None,1,1,0.4218823999981396,347.70605490001617,None,,001,2021_Feb_14_1941,GuessTheSound,2020.2.10,60.015147819879125,
,2,Pour_C.wav,SIMILAR,,,,,,,,,0,54,54,54,,,,,,,,,,,,,,,,,,,,,,,,,,,,,,,,,,,,,,,,,,,,,,,,,,,,,,,,,,,,,,,,,,,,,,,,,,,,,,,,,,,,,,,,,,,,,348.15555079997284,None,349.67197343996963,None,349.67849899997236,None,349.67849899997236,None,352.1891713999794,None,2,1,1.484355099964887,352.1891713999794,None,,001,2021_Feb_14_1941,GuessTheSound,2020.2.10,60.015147819879125,
,2,Initial/Repeat/Airplane_B.wav,NEW,,,,,,,,,0,55,55,55,,,,,,,,,,,,,,,,,,,,,,,,,,,,,,,,,,,,,,,,,,,,,,,,,,,,,,,,,,,,,,,,,,,,,,,,,,,,,,,,,,,,,,,,,,,,,353.68863230000716,None,355.20521764002046,None,355.2139453999698,None,355.2139453999698,None,357.7223447000142,None,2,1,1.3984100999659859,357.7223447000142,None,,001,2021_Feb_14_1941,GuessTheSound,2020.2.10,60.015147819879125,
,1,Initial/Repeat/PaperRip.wav,OLD,,,,,,,,,0,56,56,56,,,,,,,,,,,,,,,,,,,,,,,,,,,,,,,,,,,,,,,,,,,,,,,,,,,,,,,,,,,,,,,,,,,,,,,,,,,,,,,,,,,,,,,,,,,,,359.1384914999944,None,360.6552000400145,None,360.6539580000099,None,360.6539580000099,None,362.2555100999889,None,1,1,1.475244399975054,362.2555100999889,None,,001,2021_Feb_14_1941,GuessTheSound,2020.2.10,60.015147819879125,
,2,Test/Foils/Bird.wav,NEW,,,,,,,,,0,57,57,57,,,,,,,,,,,,,,,,,,,,,,,,,,,,,,,,,,,,,,,,,,,,,,,,,,,,,,,,,,,,,,,,,,,,,,,,,,,,,,,,,,,,,,,,,,,,,363.75514099997235,None,365.2721300399746,None,365.2776291000191,None,365.2776291000191,None,367.7891262000194,None,2,1,1.0446721999906003,367.7891262000194,None,,001,2021_Feb_14_1941,GuessTheSound,2020.2.10,60.015147819879125,
,2,Initial/Doubled/Writing_A.wav,NEW,,,,,,,,,0,58,58,58,,,,,,,,,,,,,,,,,,,,,,,,,,,,,,,,,,,,,,,,,,,,,,,,,,,,,,,,,,,,,,,,,,,,,,,,,,,,,,,,,,,,,,,,,,,,,368.8548885000055,None,370.37187184002255,None,370.3748385999934,None,370.3748385999934,None,372.88910769997165,None,2,1,0.4947266000090167,372.88910769997165,None,,001,2021_Feb_14_1941,GuessTheSound,2020.2.10,60.015147819879125,
,1,Test/Foils/Camera.wav,OLD,,,,,,,,,0,59,59,59,,,,,,,,,,,,,,,,,,,,,,,,,,,,,,,,,,,,,,,,,,,,,,,,,,,,,,,,,,,,,,,,,,,,,,,,,,,,,,,,,,,,,,,,,,,,,373.40508820000105,None,374.90534646997696,None,374.91423290001694,None,374.91423290001694,None,375.8889438000042,None,2,0,1.648622400010936,375.8889438000042,None,,001,2021_Feb_14_1941,GuessTheSound,2020.2.10,60.015147819879125,
,2,ManWhistle_D.wav,SIMILAR,,,,,,,,,0,60,60,60,,,,,,,,,,,,,,,,,,,,,,,,,,,,,,,,,,,,,,,,,,,,,,,,,,,,,,,,,,,,,,,,,,,,,,,,,,,,,,,,,,,,,,,,,,,,,377.55500399996527,None,379.0720565399854,None,379.0729103999911,None,379.0729103999911,None,380.688565999968,None,2,1,3.382517400023062,380.688565999968,None,,001,2021_Feb_14_1941,GuessTheSound,2020.2.10,60.015147819879125,
,1,Initial/Repeat/Howl.wav,OLD,,,,,,,,,0,61,61,61,,,,,,,,,,,,,,,,,,,,,,,,,,,,,,,,,,,,,,,,,,,,,,,,,,,,,,,,,,,,,,,,,,,,,,,,,,,,,,,,,,,,,,,,,,,,,384.0883650999749,None,385.5882674699766,None,385.5975689999759,None,385.5975689999759,None,388.10553489997983,None,1,1,1.7224485000479035,388.10553489997983,None,,001,2021_Feb_14_1941,GuessTheSound,2020.2.10,60.015147819879125,
,2,Initial/Doubled/Dog_A.wav,NEW,,,,,,,,,0,62,62,62,,,,,,,,,,,,,,,,,,,,,,,,,,,,,,,,,,,,,,,,,,,,,,,,,,,,,,,,,,,,,,,,,,,,,,,,,,,,,,,,,,,,,,,,,,,,,389.854834800004,None,391.37194453999405,None,391.37650179996854,None,391.37650179996854,None,393.8884661999764,None,2,1,2.813974299991969,393.8884661999764,None,,001,2021_Feb_14_1941,GuessTheSound,2020.2.10,60.015147819879125,
,2,Test/Foils/Bullfrog.wav,NEW,,,,,,,,,0,63,63,63,,,,,,,,,,,,,,,,,,,,,,,,,,,,,,,,,,,,,,,,,,,,,,,,,,,,,,,,,,,,,,,,,,,,,,,,,,,,,,,,,,,,,,,,,,,,,396.722649000003,None,398.238398439996,None,398.2405692000175,None,398.2405692000175,None,400.7554344999953,None,1,0,1.2849531999672763,400.7554344999953,None,,001,2021_Feb_14_1941,GuessTheSound,2020.2.10,60.015147819879125,
,1,Initial/Repeat/PaperRip.wav,OLD,,,,,,,,,0,64,64,64,,,,,,,,,,,,,,,,,,,,,,,,,,,,,,,,,,,,,,,,,,,,,,,,,,,,,,,,,,,,,,,,,,,,,,,,,,,,,,,,,,,,,,,,,,,,,402.056116199994,None,403.5714836700005,None,403.57599240000127,None,403.57599240000127,None,405.171772599977,None,1,1,1.4930369000067003,405.171772599977,None,,001,2021_Feb_14_1941,GuessTheSound,2020.2.10,60.015147819879125,
,1,Initial/Repeat/Airplane_B.wav,OLD,,,,,,,,,0,65,65,65,,,,,,,,,,,,,,,,,,,,,,,,,,,,,,,,,,,,,,,,,,,,,,,,,,,,,,,,,,,,,,,,,,,,,,,,,,,,,,,,,,,,,,,,,,,,,406.689072499983,None,408.1881288700039,None,408.192542099976,None,408.192542099976,None,410.7050711999764,None,1,1,1.1138662000303157,410.7050711999764,None,,001,2021_Feb_14_1941,GuessTheSound,2020.2.10,60.015147819879125,
,2,Initial/NoRepeat/Droplet_B.wav,NEW,,,,,,,,,0,66,66,66,,,,,,,,,,,,,,,,,,,,,,,,,,,,,,,,,,,,,,,,,,,,,,,,,,,,,,,,,,,,,,,,,,,,,,,,,,,,,,,,,,,,,,,,,,,,,411.83894119999604,None,413.35461473999317,None,413.359839199984,None,413.359839199984,None,415.52162389998557,None,2,1,5.686595399980433,415.52162389998557,None,,001,2021_Feb_14_1941,GuessTheSound,2020.2.10,60.015147819879125,
,2,Bird_C.wav,SIMILAR,,,,,,,,,0,67,67,67,,,,,,,,,,,,,,,,,,,,,,,,,,,,,,,,,,,,,,,,,,,,,,,,,,,,,,,,,,,,,,,,,,,,,,,,,,,,,,,,,,,,,,,,,,,,,421.238217599981,None,422.7544974399964,None,422.75592859997414,None,422.75592859997414,None,424.50478219997603,None,2,1,0.8606338999816217,424.50478219997603,None,,001,2021_Feb_14_1941,GuessTheSound,2020.2.10,60.015147819879125,
,1,Initial/Doubled/Writing_A.wav,OLD,,,,,,,,,0,68,68,68,,,,,,,,,,,,,,,,,,,,,,,,,,,,,,,,,,,,,,,,,,,,,,,,,,,,,,,,,,,,,,,,,,,,,,,,,,,,,,,,,,,,,,,,,,,,,425.38920029997826,None,426.92108494001445,None,426.91461480001453,None,426.91461480001453,None,429.42154630000005,None,1,1,0.5968733999761753,429.42154630000005,None,,001,2021_Feb_14_1941,GuessTheSound,2020.2.10,60.015147819879125,
,2,Initial/Repeat/Bagpipe.wav,NEW,,,,,,,,,0,69,69,69,,,,,,,,,,,,,,,,,,,,,,,,,,,,,,,,,,,,,,,,,,,,,,,,,,,,,,,,,,,,,,,,,,,,,,,,,,,,,,,,,,,,,,,,,,,,,430.0383989000111,None,431.5709835100104,None,431.5689277999918,None,431.5689277999918,None,433.9383845999837,None,2,1,3.570662300044205,433.9383845999837,None,,001,2021_Feb_14_1941,GuessTheSound,2020.2.10,60.015147819879125,
,2,Initial/Doubled/Growl_A.wav,NEW,,,,,,,,,0,70,70,70,,,,,,,,,,,,,,,,,,,,,,,,,,,,,,,,,,,,,,,,,,,,,,,,,,,,,,,,,,,,,,,,,,,,,,,,,,,,,,,,,,,,,,,,,,,,,437.53794780001044,None,439.05440224001654,None,439.04922380001517,None,439.04922380001517,None,441.55497429997195,None,2,1,1.110655400028918,441.55497429997195,None,,001,2021_Feb_14_1941,GuessTheSound,2020.2.10,60.015147819879125,
,2,Dog_D.wav,SIMILAR,,,,,,,,,0,71,71,71,,,,,,,,,,,,,,,,,,,,,,,,,,,,,,,,,,,,,,,,,,,,,,,,,,,,,,,,,,,,,,,,,,,,,,,,,,,,,,,,,,,,,,,,,,,,,442.68972490000306,None,444.22105644001863,None,444.22007380001014,None,444.22007380001014,None,446.2380874999799,None,2,1,1.1081055999966338,446.2380874999799,None,,001,2021_Feb_14_1941,GuessTheSound,2020.2.10,60.015147819879125,
,1,Initial/NoRepeat/Droplet_B.wav,OLD,,,,,,,,,0,72,72,72,,,,,,,,,,,,,,,,,,,,,,,,,,,,,,,,,,,,,,,,,,,,,,,,,,,,,,,,,,,,,,,,,,,,,,,,,,,,,,,,,,,,,,,,,,,,,447.37163429998327,None,448.88745443999073,None,448.88126180000836,None,448.88126180000836,None,451.03814000001876,None,2,0,1.664379799971357,451.03814000001876,None,,001,2021_Feb_14_1941,GuessTheSound,2020.2.10,60.015147819879125,
,2,Initial/NoRepeat/Faucet_A.wav,NEW,,,,,,,,,0,73,73,73,,,,,,,,,,,,,,,,,,,,,,,,,,,,,,,,,,,,,,,,,,,,,,,,,,,,,,,,,,,,,,,,,,,,,,,,,,,,,,,,,,,,,,,,,,,,,452.7215539999888,None,454.23772373998077,None,454.2401480000117,None,454.2401480000117,None,456.72117360000266,None,2,1,2.8630847000167705,456.72117360000266,None,,001,2021_Feb_14_1941,GuessTheSound,2020.2.10,60.015147819879125,
,2,Bird_D.wav,SIMILAR,,,,,,,,,0,74,74,74,,,,,,,,,,,,,,,,,,,,,,,,,,,,,,,,,,,,,,,,,,,,,,,,,,,,,,,,,,,,,,,,,,,,,,,,,,,,,,,,,,,,,,,,,,,,,459.60438899998553,None,461.1220985400025,None,461.1164281999809,None,461.1164281999809,None,462.4546797000221,None,2,1,0.9678782999981195,462.4546797000221,None,,001,2021_Feb_14_1941,GuessTheSound,2020.2.10,60.015147819879125,
,1,Test/Foils/Bullfrog.wav,OLD,,,,,,,,,0,75,75,75,,,,,,,,,,,,,,,,,,,,,,,,,,,,,,,,,,,,,,,,,,,,,,,,,,,,,,,,,,,,,,,,,,,,,,,,,,,,,,,,,,,,,,,,,,,,,463.4375329000177,None,464.95422334001637,None,464.950107200013,None,464.950107200013,None,467.4547800999717,None,1,1,1.658571399981156,467.4547800999717,None,,001,2021_Feb_14_1941,GuessTheSound,2020.2.10,60.015147819879125,
,1,Initial/Repeat/Airplane_B.wav,OLD,,,,,,,,,0,76,76,76,,,,,,,,,,,,,,,,,,,,,,,,,,,,,,,,,,,,,,,,,,,,,,,,,,,,,,,,,,,,,,,,,,,,,,,,,,,,,,,,,,,,,,,,,,,,,469.1385086000082,None,470.65422924001473,None,470.6523323999718,None,470.6523323999718,None,473.1544122999767,None,1,1,1.0089139000046998,473.1544122999767,None,,001,2021_Feb_14_1941,GuessTheSound,2020.2.10,60.015147819879125,
,2,Initial/Doubled/Chime_A.wav,NEW,,,,,,,,,0,77,77,77,,,,,,,,,,,,,,,,,,,,,,,,,,,,,,,,,,,,,,,,,,,,,,,,,,,,,,,,,,,,,,,,,,,,,,,,,,,,,,,,,,,,,,,,,,,,,474.1884756999789,None,475.70420163996755,None,475.71061860001646,None,475.71061860001646,None,478.2212126000086,None,2,1,1.2834652999881655,478.2212126000086,None,,001,2021_Feb_14_1941,GuessTheSound,2020.2.10,60.015147819879125,
,2,Growl_B.wav,SIMILAR,,,,,,,,,0,78,78,78,,,,,,,,,,,,,,,,,,,,,,,,,,,,,,,,,,,,,,,,,,,,,,,,,,,,,,,,,,,,,,,,,,,,,,,,,,,,,,,,,,,,,,,,,,,,,479.5215621999814,None,481.0374475400197,None,481.04661849996774,None,481.04661849996774,None,483.55457350000506,None,2,1,1.2592740000109188,483.55457350000506,None,,001,2021_Feb_14_1941,GuessTheSound,2020.2.10,60.015147819879125,
,,,,,,,,,,,,,,,,,,,,,,,,,,,,,,,,,,,,,,,,,,,,,,,,,,,,,,,,,,,,,,,,,,,,,,,,,,,,,,,,,,,,,,,,,,,,,,,,,,,,,,,,,,,,484.8383251000196,None,486.35406443999386,None,486.3518605999998,None,486.3518605999998,None,,,,,,,,,,,,,,
