SoundFile5,Correct,Correct2,Type,PracticeTrials.thisRepN,PracticeTrials.thisTrialN,PracticeTrials.thisN,PracticeTrials.thisIndex,trials.thisRepN,trials.thisTrialN,trials.thisN,trials.thisIndex,InstructionTxt.started,InstructionTxt.stopped,WelcomContinue.started,WelcomContinue.stopped,VolumeBeginTxt.started,VolumeBeginTxt.stopped,VolumeContinueKey.keys,VolumeContinueKey.rt,VolumeContinueKey.started,VolumeContinueKey.stopped,text.started,text.stopped,Music.started,Music.stopped,AdjustContinue.started,AdjustContinue.stopped,HeadphoneCheckBeing.started,HeadphoneCheckBeing.stopped,HeadphoneContinue.started,HeadphoneContinue.stopped,HeadphoneContinueKey.keys,HeadphoneContinueKey.rt,HeadphoneContinueKey.started,HeadphoneContinueKey.stopped,text_3.started,text_3.stopped,text_4.started,text_4.stopped,key_resp_2.keys,key_resp_2.rt,key_resp_2.started,key_resp_2.stopped,text_5.started,text_5.stopped,text_6.started,text_6.stopped,key_resp_3.keys,key_resp_3.rt,key_resp_3.started,key_resp_3.stopped,InstructionTxt2.started,InstructionTxt2.stopped,WelcomeContinue2.started,WelcomeContinue2.stopped,WelcomeContinueKey2.keys,WelcomeContinueKey2.rt,WelcomeContinueKey2.started,WelcomeContinueKey2.stopped,TrialNumber.started,TrialNumber.stopped,PracticeSound.started,PracticeSound.stopped,PracticeCross.started,PracticeCross.stopped,Practice_resp.keys,Practice_resp.corr,Practice_resp.rt,Practice_resp.started,Practice_resp.stopped,PracticeMssg.started,PracticeMssg.stopped,FeedbackCross.started,FeedbackCross.stopped,Continue.started,Continue.stopped,Options.started,Options.stopped,FeedbackMssg.started,FeedbackMssg.stopped,StartTxt.started,StartTxt.stopped,StartTast.keys,StartTast.rt,StartTast.started,StartTast.stopped,ContinueStart.started,ContinueStart.stopped,no_3.started,no_3.stopped,TargetSound.started,TargetSound.stopped,Cross.started,Cross.stopped,ItemNumber.started,ItemNumber.stopped,text_2.started,text_2.stopped,key_resp.keys,key_resp.corr,key_resp.rt,key_resp.started,key_resp.stopped,participant,session,date,expName,psychopyVersion,frameRate,
,,,,,,,,,,,,7.5033252000575885,None,7.5033252000575885,None,8.340496000018902,None,space,1.70771790004801,8.340496000018902,None,,,,,,,,,,,,,,,,,,,,,,,,,,,,,,,,,,,,,,,,,,,,,,,,,,,,,,,,,,,,,,,,,,,,,,,,,,,,,,,,,,,,001,2021_Feb_17_1606,GuessTheSound,2020.2.10,59.95121169534463,
,,,,,,,,,,,,,,,,,,,,,,10.092327999998815,None,10.090371940052137,None,10.092327999998815,None,10.690254400018603,None,10.690254400018603,None,space,1.1110447000246495,10.690254400018603,None,,,,,,,,,,,,,,,,,,,,,,,,,,,,,,,,,,,,,,,,,,,,,,,,,,,,,,,,,,,,,,,,,,,,,,001,2021_Feb_17_1606,GuessTheSound,2020.2.10,59.95121169534463,
,,,,,,,,,,,,,,,,,,,,,,,,,,,,,,,,,,,,11.823742200038396,None,11.823742200038396,None,space,0.6039792000083253,11.823742200038396,None,,,,,,,,,,,,,,,,,,,,,,,,,,,,,,,,,,,,,,,,,,,,,,,,,,,,,,,,,,,,,,001,2021_Feb_17_1606,GuessTheSound,2020.2.10,59.95121169534463,
,,,,,,,,,,,,,,,,,,,,,,,,,,,,,,,,,,,,,,,,,,,,12.457200299948454,None,12.457200299948454,None,space,0.5773440999910235,12.457200299948454,None,,,,,,,,,,,,,,,,,,,,,,,,,,,,,,,,,,,,,,,,,,,,,,,,,,,,,,001,2021_Feb_17_1606,GuessTheSound,2020.2.10,59.95121169534463,
,,,,,,,,,,,,,,,,,,,,,,,,,,,,,,,,,,,,,,,,,,,,,,,,,,,,13.056719399988651,None,13.056719399988651,None,space,0.6014093999983743,13.056719399988651,None,,,,,,,,,,,,,,,,,,,,,,,,,,,,,,,,,,,,,,,,,,,,,,001,2021_Feb_17_1606,GuessTheSound,2020.2.10,59.95121169534463,
Practice/Seagull_A.wav,2,3,NEW,0,0,0,0,,,,,,,,,,,,,,,,,,,,,,,,,,,,,,,,,,,,,,,,,,,,,,,,,,,,,13.763851700001396,None,13.75656661996618,None,13.763851700001396,None,2,1,1.9506354000186548,16.041651400038972,None,16.041651400038972,None,16.041651400038972,None,16.041651400038972,None,16.041651400038972,None,18.025297999964096,None,,,,,,,,,,,,,,,,,,,,,,,,,001,2021_Feb_17_1606,GuessTheSound,2020.2.10,59.95121169534463,
Practice/Skid_B.wav,2,3,NEW,0,1,1,1,,,,,,,,,,,,,,,,,,,,,,,,,,,,,,,,,,,,,,,,,,,,,,,,,,,,,19.05946729995776,None,19.056005839956924,None,19.05946729995776,None,2,1,0.5774822999956086,21.17306419997476,None,21.17306419997476,None,21.17306419997476,None,21.17306419997476,None,21.17306419997476,None,21.772570900036953,None,,,,,,,,,,,,,,,,,,,,,,,,,001,2021_Feb_17_1606,GuessTheSound,2020.2.10,59.95121169534463,
Practice/Seagull_A.wav,1,1,OLD,0,2,2,2,,,,,,,,,,,,,,,,,,,,,,,,,,,,,,,,,,,,,,,,,,,,,,,,,,,,,22.772355300025083,25.039352899999358,22.772656370012555,None,22.772355300025083,25.039352899999358,2,0,0.5756949000060558,25.05793150002137,None,25.05793150002137,None,25.05793150002137,None,25.05793150002137,None,25.05793150002137,None,25.6562513000099,None,,,,,,,,,,,,,,,,,,,,,,,,,001,2021_Feb_17_1606,GuessTheSound,2020.2.10,59.95121169534463,
Practice/Gargle_A.wav,2,3,NEW,0,3,3,3,,,,,,,,,,,,,,,,,,,,,,,,,,,,,,,,,,,,,,,,,,,,,,,,,,,,,26.675562900025398,28.939024099963717,26.672426240053028,None,26.675562900025398,28.939024099963717,2,1,0.3914588999468833,28.957242400036193,None,28.957242400036193,None,28.957242400036193,None,28.957242400036193,None,28.957242400036193,None,29.372327300021425,None,,,,,,,,,,,,,,,,,,,,,,,,,001,2021_Feb_17_1606,GuessTheSound,2020.2.10,59.95121169534463,
Practice/Gargle_B.wav,2,2,SIMILAR,0,4,4,4,,,,,,,,,,,,,,,,,,,,,,,,,,,,,,,,,,,,,,,,,,,,,,,,,,,,,30.40145120001398,32.456363299977966,30.406149110000115,None,30.40145120001398,32.456363299977966,1,0,0.3001060000387952,32.503778900019825,None,32.503778900019825,None,32.503778900019825,None,32.503778900019825,None,32.503778900019825,None,32.83558429998811,None,,,,,,,,,,,,,,,,,,,,,,,,,001,2021_Feb_17_1606,GuessTheSound,2020.2.10,59.95121169534463,
,,,,,,,,,,,,,,,,,,,,,,,,,,,,,,,,,,,,,,,,,,,,,,,,,,,,,,,,,,,,,,,,,,,,,,,,,,,,,,,,,33.84009319997858,None,space,1.9695742999901995,33.84009319997858,None,,,,,,,,,,,,,,,,,,,001,2021_Feb_17_1606,GuessTheSound,2020.2.10,59.95121169534463,
Initial/Repeat/Buzz.wav,2,3,NEW,,,,,0,0,0,0,,,,,,,,,,,,,,,,,,,,,,,,,,,,,,,,,,,,,,,,,,,,,,,,,,,,,,,,,,,,,,,,,,,,,,,,,,,,33.84009319997858,None,35.91521140001714,None,37.40614217997063,None,37.40667149994988,None,37.40667149994988,None,39.70631759997923,None,2,1,1.102604900021106,39.70631759997923,None,,001,2021_Feb_17_1606,GuessTheSound,2020.2.10,59.95121169534463,
Test/Lures/Chime_B.wav,2,3,NEW,,,,,0,1,1,1,,,,,,,,,,,,,,,,,,,,,,,,,,,,,,,,,,,,,,,,,,,,,,,,,,,,,,,,,,,,,,,,,,,,,,,,,,,,,,40.84406310005579,None,42.389402409957256,None,42.3941318000434,None,42.3941318000434,None,44.70644830004312,None,2,1,0.790743499994278,44.70644830004312,None,,001,2021_Feb_17_1606,GuessTheSound,2020.2.10,59.95121169534463,
Initial/NoRepeat/Thunder_A.wav,2,3,NEW,,,,,0,2,2,2,,,,,,,,,,,,,,,,,,,,,,,,,,,,,,,,,,,,,,,,,,,,,,,,,,,,,,,,,,,,,,,,,,,,,,,,,,,,,,45.5226916000247,None,47.0729296799982,None,47.071682699956,None,47.071682699956,None,49.37330680002924,None,2,1,0.7905892999842763,49.37330680002924,None,,001,2021_Feb_17_1606,GuessTheSound,2020.2.10,59.95121169534463,
Initial/NoRepeat/Toilet_B.wav,2,3,NEW,,,,,0,3,3,3,,,,,,,,,,,,,,,,,,,,,,,,,,,,,,,,,,,,,,,,,,,,,,,,,,,,,,,,,,,,,,,,,,,,,,,,,,,,,,50.1915782999713,None,51.755937580019236,None,51.75287850003224,None,51.75287850003224,None,54.05643640004564,None,2,1,3.029006000026129,54.05643640004564,None,,001,2021_Feb_17_1606,GuessTheSound,2020.2.10,59.95121169534463,
Test/Foils/Typing.wav,2,3,NEW,,,,,0,4,4,4,,,,,,,,,,,,,,,,,,,,,,,,,,,,,,,,,,,,,,,,,,,,,,,,,,,,,,,,,,,,,,,,,,,,,,,,,,,,,,57.1076938000042,None,58.655761809961405,None,58.66533680004068,None,58.66533680004068,None,60.97293179994449,None,2,1,0.9646139000542462,60.97293179994449,None,,001,2021_Feb_17_1606,GuessTheSound,2020.2.10,59.95121169534463,
Test/Foils/DialTone.wav,2,3,NEW,,,,,0,5,5,5,,,,,,,,,,,,,,,,,,,,,,,,,,,,,,,,,,,,,,,,,,,,,,,,,,,,,,,,,,,,,,,,,,,,,,,,,,,,,,61.95533200004138,None,63.48919821000891,None,63.497620000038296,None,63.497620000038296,None,65.80622919998132,None,2,1,0.07516370003577322,65.80622919998132,None,,001,2021_Feb_17_1606,GuessTheSound,2020.2.10,59.95121169534463,
Initial/Repeat/Pour.wav,2,3,NEW,,,,,0,6,6,6,,,,,,,,,,,,,,,,,,,,,,,,,,,,,,,,,,,,,,,,,,,,,,,,,,,,,,,,,,,,,,,,,,,,,,,,,,,,,,65.90689490002114,None,67.4727272799937,None,67.46570629999042,None,67.46570629999042,None,69.77297579997685,None,2,1,0.6110284000169486,69.77297579997685,None,,001,2021_Feb_17_1606,GuessTheSound,2020.2.10,59.95121169534463,
Initial/NoRepeat/Sleighbells_B.wav,2,3,NEW,,,,,0,7,7,7,,,,,,,,,,,,,,,,,,,,,,,,,,,,,,,,,,,,,,,,,,,,,,,,,,,,,,,,,,,,,,,,,,,,,,,,,,,,,,70.40668420004658,None,71.95577027997933,None,71.95436279999558,None,71.95436279999558,None,74.2562960999785,None,2,1,0.44214759999886155,74.2562960999785,None,,001,2021_Feb_17_1606,GuessTheSound,2020.2.10,59.95121169534463,
Initial/Repeat/Buzz.wav,1,1,OLD,,,,,0,8,8,8,,,,,,,,,,,,,,,,,,,,,,,,,,,,,,,,,,,,,,,,,,,,,,,,,,,,,,,,,,,,,,,,,,,,,,,,,,,,,,74.72462590003852,None,76.25598573999014,None,76.25665660004597,None,76.25665660004597,None,78.55615530000068,None,1,1,0.9156701000174507,78.55615530000068,None,,001,2021_Feb_17_1606,GuessTheSound,2020.2.10,59.95121169534463,
Initial/NoRepeat/Baby_B.wav,2,3,NEW,,,,,0,9,9,9,,,,,,,,,,,,,,,,,,,,,,,,,,,,,,,,,,,,,,,,,,,,,,,,,,,,,,,,,,,,,,,,,,,,,,,,,,,,,,79.48943329998292,None,81.03918687999249,None,81.03831069997977,None,81.03831069997977,None,83.33919369999785,None,2,1,0.6449518000008538,83.33919369999785,None,,001,2021_Feb_17_1606,GuessTheSound,2020.2.10,59.95121169534463,
Initial/Doubled/Bubbles_A.wav,2,3,NEW,,,,,0,10,10,10,,,,,,,,,,,,,,,,,,,,,,,,,,,,,,,,,,,,,,,,,,,,,,,,,,,,,,,,,,,,,,,,,,,,,,,,,,,,,,84.00554719998036,None,85.55565988004673,None,85.55292859999463,None,85.55292859999463,None,87.85618480003905,None,2,1,0.7148198999930173,87.85618480003905,None,,001,2021_Feb_17_1606,GuessTheSound,2020.2.10,59.95121169534463,
Initial/NoRepeat/Thunder_A.wav,1,1,OLD,,,,,0,11,11,11,,,,,,,,,,,,,,,,,,,,,,,,,,,,,,,,,,,,,,,,,,,,,,,,,,,,,,,,,,,,,,,,,,,,,,,,,,,,,,88.59071380004752,None,90.10558457003208,None,90.11234820005484,None,90.11234820005484,None,92.42283649998717,None,1,1,0.5285452000098303,92.42283649998717,None,,001,2021_Feb_17_1606,GuessTheSound,2020.2.10,59.95121169534463,
Test/Foils/Typing.wav,1,1,OLD,,,,,0,12,12,12,,,,,,,,,,,,,,,,,,,,,,,,,,,,,,,,,,,,,,,,,,,,,,,,,,,,,,,,,,,,,,,,,,,,,,,,,,,,,,92.97218869999051,None,94.4721329700551,None,94.4805583000416,None,94.4805583000416,None,96.78910539997742,None,1,1,0.3801046999869868,96.78910539997742,None,,001,2021_Feb_17_1606,GuessTheSound,2020.2.10,59.95121169534463,
Initial/Doubled/Chime_A.wav,2,2,SIMILAR,,,,,0,13,13,13,,,,,,,,,,,,,,,,,,,,,,,,,,,,,,,,,,,,,,,,,,,,,,,,,,,,,,,,,,,,,,,,,,,,,,,,,,,,,,97.18962530000135,None,98.7390870800009,None,98.7429272000445,None,98.7429272000445,None,101.05599480005912,None,2,1,0.7642750999657437,101.05599480005912,None,,001,2021_Feb_17_1606,GuessTheSound,2020.2.10,59.95121169534463,
Test/Foils/DialTone.wav,1,1,OLD,,,,,0,14,14,14,,,,,,,,,,,,,,,,,,,,,,,,,,,,,,,,,,,,,,,,,,,,,,,,,,,,,,,,,,,,,,,,,,,,,,,,,,,,,,101.83987519994844,None,103.35541317000752,None,103.36326330003794,None,103.36326330003794,None,105.67248209996615,None,2,0,0.23123200004920363,105.67248209996615,None,,001,2021_Feb_17_1606,GuessTheSound,2020.2.10,59.95121169534463,
Initial/Doubled/Writing_A.wav,2,3,NEW,,,,,0,15,15,15,,,,,,,,,,,,,,,,,,,,,,,,,,,,,,,,,,,,,,,,,,,,,,,,,,,,,,,,,,,,,,,,,,,,,,,,,,,,,,105.92479560000356,None,107.47227991005639,None,107.48190999997314,None,107.48190999997314,None,109.78910589998122,None,2,1,0.04715070000384003,109.78910589998122,None,,001,2021_Feb_17_1606,GuessTheSound,2020.2.10,59.95121169534463,
Initial/NoRepeat/Faucet_A.wav,2,3,NEW,,,,,0,16,16,16,,,,,,,,,,,,,,,,,,,,,,,,,,,,,,,,,,,,,,,,,,,,,,,,,,,,,,,,,,,,,,,,,,,,,,,,,,,,,,109.8555662999861,None,111.38860970997484,None,111.39510039996821,None,111.39510039996821,None,113.70608449995052,None,2,1,0.4326166999526322,113.70608449995052,None,,001,2021_Feb_17_1606,GuessTheSound,2020.2.10,59.95121169534463,
Initial/NoRepeat/Toilet_B.wav,1,1,OLD,,,,,0,17,17,17,,,,,,,,,,,,,,,,,,,,,,,,,,,,,,,,,,,,,,,,,,,,,,,,,,,,,,,,,,,,,,,,,,,,,,,,,,,,,,114.15546439995524,None,115.67213833995629,None,115.66542410000693,None,115.66542410000693,None,117.97244969999883,None,1,1,0.24502180004492402,117.97244969999883,None,,001,2021_Feb_17_1606,GuessTheSound,2020.2.10,59.95121169534463,
Pour_C.wav,2,2,SIMILAR,,,,,0,18,18,18,,,,,,,,,,,,,,,,,,,,,,,,,,,,,,,,,,,,,,,,,,,,,,,,,,,,,,,,,,,,,,,,,,,,,,,,,,,,,,118.23855510004796,None,119.7554140399443,None,119.75940900004935,None,119.75940900004935,None,122.07236430002376,None,2,1,1.34904010000173,122.07236430002376,None,,001,2021_Feb_17_1606,GuessTheSound,2020.2.10,59.95121169534463,
Laugh_C.wav,2,3,NEW,,,,,0,19,19,19,,,,,,,,,,,,,,,,,,,,,,,,,,,,,,,,,,,,,,,,,,,,,,,,,,,,,,,,,,,,,,,,,,,,,,,,,,,,,,123.43852309999056,None,124.95541384001262,None,124.9615859000478,None,124.9615859000478,None,127.27238480001688,None,2,1,0.7433669000165537,127.27238480001688,None,,001,2021_Feb_17_1606,GuessTheSound,2020.2.10,59.95121169534463,
Initial/NoRepeat/Sleighbells_B.wav,1,1,OLD,,,,,0,20,20,20,,,,,,,,,,,,,,,,,,,,,,,,,,,,,,,,,,,,,,,,,,,,,,,,,,,,,,,,,,,,,,,,,,,,,,,,,,,,,,128.03951160004362,None,129.55538534000516,None,129.55032679997385,None,129.55032679997385,None,131.85546260001138,None,2,0,1.0940159999299794,131.85546260001138,None,,001,2021_Feb_17_1606,GuessTheSound,2020.2.10,59.95121169534463,
Initial/Doubled/Bubbles_A.wav,1,1,OLD,,,,,0,21,21,21,,,,,,,,,,,,,,,,,,,,,,,,,,,,,,,,,,,,,,,,,,,,,,,,,,,,,,,,,,,,,,,,,,,,,,,,,,,,,,132.97188840003219,None,134.48880364000797,None,134.48499509994872,None,134.48499509994872,None,136.78884709998965,None,2,0,0.8332295001018792,136.78884709998965,None,,001,2021_Feb_17_1606,GuessTheSound,2020.2.10,59.95121169534463,
Initial/Repeat/Buzz.wav,1,1,OLD,,,,,0,22,22,22,,,,,,,,,,,,,,,,,,,,,,,,,,,,,,,,,,,,,,,,,,,,,,,,,,,,,,,,,,,,,,,,,,,,,,,,,,,,,,137.6394557999447,None,139.13860016997205,None,139.14854810002726,None,139.14854810002726,None,141.4556418999564,None,1,1,0.5289074999745935,141.4556418999564,None,,001,2021_Feb_17_1606,GuessTheSound,2020.2.10,59.95121169534463,
Baby_A.wav,2,2,SIMILAR,,,,,0,23,23,23,,,,,,,,,,,,,,,,,,,,,,,,,,,,,,,,,,,,,,,,,,,,,,,,,,,,,,,,,,,,,,,,,,,,,,,,,,,,,,142.00589290005155,None,143.5217065400211,None,143.52496199996676,None,143.52496199996676,None,145.82217419997323,None,2,1,1.5963552000466734,145.82217419997323,None,,001,2021_Feb_17_1606,GuessTheSound,2020.2.10,59.95121169534463,
Initial/Doubled/Writing_A.wav,1,1,OLD,,,,,0,24,24,24,,,,,,,,,,,,,,,,,,,,,,,,,,,,,,,,,,,,,,,,,,,,,,,,,,,,,,,,,,,,,,,,,,,,,,,,,,,,,,147.43838389997836,None,148.95507894002367,None,148.94836040004157,None,148.94836040004157,None,151.25539219996426,None,1,1,0.5543155999621376,151.25539219996426,None,,001,2021_Feb_17_1606,GuessTheSound,2020.2.10,59.95121169534463,
Initial/Doubled/Cough_A.wav,2,3,NEW,,,,,0,25,25,25,,,,,,,,,,,,,,,,,,,,,,,,,,,,,,,,,,,,,,,,,,,,,,,,,,,,,,,,,,,,,,,,,,,,,,,,,,,,,,151.83832810004242,None,153.3883990800241,None,153.38690569996834,None,153.38690569996834,None,155.0885719000362,None,2,1,0.7693481999449432,155.0885719000362,None,,001,2021_Feb_17_1606,GuessTheSound,2020.2.10,59.95121169534463,
Test/Foils/DialTone.wav,1,1,OLD,,,,,0,26,26,26,,,,,,,,,,,,,,,,,,,,,,,,,,,,,,,,,,,,,,,,,,,,,,,,,,,,,,,,,,,,,,,,,,,,,,,,,,,,,,155.89039199997205,None,157.40487647004193,None,157.41418309998699,None,157.41418309998699,None,159.7220281000482,None,1,1,1.207655500038527,159.7220281000482,None,,001,2021_Feb_17_1606,GuessTheSound,2020.2.10,59.95121169534463,
Test/Lures/Guitar_B.wav,2,3,NEW,,,,,0,27,27,27,,,,,,,,,,,,,,,,,,,,,,,,,,,,,,,,,,,,,,,,,,,,,,,,,,,,,,,,,,,,,,,,,,,,,,,,,,,,,,160.956312000053,None,162.50520160997985,None,162.5063136999961,None,162.5063136999961,None,164.80534399999306,None,2,1,0.2975846999324858,164.80534399999306,None,,001,2021_Feb_17_1606,GuessTheSound,2020.2.10,59.95121169534463,
Chime_C.wav,2,2,SIMILAR,,,,,0,28,28,28,,,,,,,,,,,,,,,,,,,,,,,,,,,,,,,,,,,,,,,,,,,,,,,,,,,,,,,,,,,,,,,,,,,,,,,,,,,,,,165.1231932999799,None,166.6718036099919,None,166.6686257000547,None,166.6686257000547,None,168.97193480003625,None,2,1,0.668151400052011,168.97193480003625,None,,001,2021_Feb_17_1606,GuessTheSound,2020.2.10,59.95121169534463,
Initial/Repeat/IceDrop.wav,2,3,NEW,,,,,0,29,29,29,,,,,,,,,,,,,,,,,,,,,,,,,,,,,,,,,,,,,,,,,,,,,,,,,,,,,,,,,,,,,,,,,,,,,,,,,,,,,,169.67115740000736,None,171.22163747996092,None,171.21787880000193,None,171.21787880000193,None,173.52182270004414,None,2,1,0.6469687999924645,173.52182270004414,None,,001,2021_Feb_17_1606,GuessTheSound,2020.2.10,59.95121169534463,
Test/Foils/Typing.wav,1,1,OLD,,,,,0,30,30,30,,,,,,,,,,,,,,,,,,,,,,,,,,,,,,,,,,,,,,,,,,,,,,,,,,,,,,,,,,,,,,,,,,,,,,,,,,,,,,174.18923520005774,None,175.68827606999548,None,175.69779889995698,None,175.69779889995698,None,178.00515790004283,None,1,1,0.687783099943772,178.00515790004283,None,,001,2021_Feb_17_1606,GuessTheSound,2020.2.10,59.95121169534463,
Bird_C.wav,2,3,NEW,,,,,0,31,31,31,,,,,,,,,,,,,,,,,,,,,,,,,,,,,,,,,,,,,,,,,,,,,,,,,,,,,,,,,,,,,,,,,,,,,,,,,,,,,,178.72123450005893,None,180.22162547003245,None,180.23103599995375,None,180.23103599995375,None,181.97120050003286,None,2,1,0.3253956000553444,181.97120050003286,None,,001,2021_Feb_17_1606,GuessTheSound,2020.2.10,59.95121169534463,
Initial/NoRepeat/Thunder_A.wav,1,1,OLD,,,,,0,32,32,32,,,,,,,,,,,,,,,,,,,,,,,,,,,,,,,,,,,,,,,,,,,,,,,,,,,,,,,,,,,,,,,,,,,,,,,,,,,,,,182.3223461000016,None,183.8215451699798,None,183.82815990003292,None,183.82815990003292,None,186.1382163000526,None,1,1,0.3738848000066355,186.1382163000526,None,,001,2021_Feb_17_1606,GuessTheSound,2020.2.10,59.95121169534463,
Initial/NoRepeat/Faucet_A.wav,1,1,OLD,,,,,0,33,33,33,,,,,,,,,,,,,,,,,,,,,,,,,,,,,,,,,,,,,,,,,,,,,,,,,,,,,,,,,,,,,,,,,,,,,,,,,,,,,,186.53802740003448,None,188.05478103994392,None,188.0480296999449,None,188.0480296999449,None,190.3551846999908,None,1,1,0.09096039994619787,190.3551846999908,None,,001,2021_Feb_17_1606,GuessTheSound,2020.2.10,59.95121169534463,
Initial/NoRepeat/Toilet_B.wav,1,1,OLD,,,,,0,34,34,34,,,,,,,,,,,,,,,,,,,,,,,,,,,,,,,,,,,,,,,,,,,,,,,,,,,,,,,,,,,,,,,,,,,,,,,,,,,,,,190.47257990005892,None,191.97188036999432,None,191.98157980001997,None,191.98157980001997,None,194.28814850002527,None,2,0,1.3089861000189558,194.28814850002527,None,,001,2021_Feb_17_1606,GuessTheSound,2020.2.10,59.95121169534463,
Initial/Doubled/Laugh_A.wav,2,2,SIMILAR,,,,,0,35,35,35,,,,,,,,,,,,,,,,,,,,,,,,,,,,,,,,,,,,,,,,,,,,,,,,,,,,,,,,,,,,,,,,,,,,,,,,,,,,,,195.62232279998716,None,197.17163738003,None,197.165962100029,None,197.165962100029,None,199.47150550002698,None,2,1,0.9120085999602452,199.47150550002698,None,,001,2021_Feb_17_1606,GuessTheSound,2020.2.10,59.95121169534463,
Initial/Doubled/Bubbles_A.wav,1,1,OLD,,,,,0,36,36,36,,,,,,,,,,,,,,,,,,,,,,,,,,,,,,,,,,,,,,,,,,,,,,,,,,,,,,,,,,,,,,,,,,,,,,,,,,,,,,200.40575060003903,None,201.9215092700324,None,201.9290447999956,None,201.9290447999956,None,204.23803220002446,None,1,1,0.37986710004042834,204.23803220002446,None,,001,2021_Feb_17_1606,GuessTheSound,2020.2.10,59.95121169534463,
Initial/Doubled/Chicken_A.wav,2,3,NEW,,,,,0,37,37,37,,,,,,,,,,,,,,,,,,,,,,,,,,,,,,,,,,,,,,,,,,,,,,,,,,,,,,,,,,,,,,,,,,,,,,,,,,,,,,204.6394077000441,None,206.18771410995396,None,206.18528950004838,None,206.18528950004838,None,207.8715446999995,None,2,1,0.5305551000637934,207.8715446999995,None,,001,2021_Feb_17_1606,GuessTheSound,2020.2.10,59.95121169534463,
Pour_D.wav,2,2,SIMILAR,,,,,0,38,38,38,,,,,,,,,,,,,,,,,,,,,,,,,,,,,,,,,,,,,,,,,,,,,,,,,,,,,,,,,,,,,,,,,,,,,,,,,,,,,,208.4214486000128,None,209.9380011400208,None,209.94556130003184,None,209.94556130003184,None,212.25480730005074,None,2,1,1.6531691999407485,212.25480730005074,None,,001,2021_Feb_17_1606,GuessTheSound,2020.2.10,59.95121169534463,
Test/Lures/Guitar_B.wav,1,1,OLD,,,,,0,39,39,39,,,,,,,,,,,,,,,,,,,,,,,,,,,,,,,,,,,,,,,,,,,,,,,,,,,,,,,,,,,,,,,,,,,,,,,,,,,,,,213.93754479999188,None,215.4545034399489,None,215.45031560002826,None,215.45031560002826,None,217.75480959995184,None,1,1,0.5097018999513239,217.75480959995184,None,,001,2021_Feb_17_1606,GuessTheSound,2020.2.10,59.95121169534463,
Initial/NoRepeat/Sleighbells_B.wav,1,1,OLD,,,,,0,40,40,40,,,,,,,,,,,,,,,,,,,,,,,,,,,,,,,,,,,,,,,,,,,,,,,,,,,,,,,,,,,,,,,,,,,,,,,,,,,,,,218.28762820002157,None,219.80424474005122,None,219.7997854000423,None,219.7997854000423,None,222.1049322000472,None,1,1,0.8360281999921426,222.1049322000472,None,,001,2021_Feb_17_1606,GuessTheSound,2020.2.10,59.95121169534463,
Initial/Repeat/Airplane_B.wav,2,3,NEW,,,,,0,41,41,41,,,,,,,,,,,,,,,,,,,,,,,,,,,,,,,,,,,,,,,,,,,,,,,,,,,,,,,,,,,,,,,,,,,,,,,,,,,,,,222.97085040004458,None,224.52146087994333,None,224.5175294999499,None,224.5175294999499,None,226.82332880003378,None,2,1,0.41689890006091446,226.82332880003378,None,,001,2021_Feb_17_1606,GuessTheSound,2020.2.10,59.95121169534463,
Baby_C.wav,2,2,SIMILAR,,,,,0,42,42,42,,,,,,,,,,,,,,,,,,,,,,,,,,,,,,,,,,,,,,,,,,,,,,,,,,,,,,,,,,,,,,,,,,,,,,,,,,,,,,227.27094810002018,None,228.78760964004323,None,228.79117069998756,None,228.79117069998756,None,231.10484070004895,None,2,1,1.4525515999412164,231.10484070004895,None,,001,2021_Feb_17_1606,GuessTheSound,2020.2.10,59.95121169534463,
Cough_D.wav,2,2,SIMILAR,,,,,0,43,43,43,,,,,,,,,,,,,,,,,,,,,,,,,,,,,,,,,,,,,,,,,,,,,,,,,,,,,,,,,,,,,,,,,,,,,,,,,,,,,,232.58740489999764,None,234.10429734003264,None,234.11034050001763,None,234.11034050001763,None,235.87133340002038,None,2,1,1.0254221999784932,235.87133340002038,None,,001,2021_Feb_17_1606,GuessTheSound,2020.2.10,59.95121169534463,
Bird_D.wav,2,2,SIMILAR,,,,,0,44,44,44,,,,,,,,,,,,,,,,,,,,,,,,,,,,,,,,,,,,,,,,,,,,,,,,,,,,,,,,,,,,,,,,,,,,,,,,,,,,,,236.9234385000309,None,238.45427763997577,None,238.4510953000281,None,238.4510953000281,None,239.78786859998945,None,2,1,0.627582999994047,239.78786859998945,None,,001,2021_Feb_17_1606,GuessTheSound,2020.2.10,59.95121169534463,
Initial/Doubled/Writing_A.wav,1,1,OLD,,,,,0,45,45,45,,,,,,,,,,,,,,,,,,,,,,,,,,,,,,,,,,,,,,,,,,,,,,,,,,,,,,,,,,,,,,,,,,,,,,,,,,,,,,240.43723759998102,None,241.93716437002877,None,241.9435617000563,None,241.9435617000563,None,244.2548335000174,None,1,1,0.6350622000172734,244.2548335000174,None,,001,2021_Feb_17_1606,GuessTheSound,2020.2.10,59.95121169534463,
Initial/Repeat/IceDrop.wav,1,1,OLD,,,,,0,46,46,46,,,,,,,,,,,,,,,,,,,,,,,,,,,,,,,,,,,,,,,,,,,,,,,,,,,,,,,,,,,,,,,,,,,,,,,,,,,,,,244.90488329995424,None,246.40414746996248,None,246.4130195999751,None,246.4130195999751,None,248.7211586999474,None,1,1,1.9193595999386162,248.7211586999474,None,,001,2021_Feb_17_1606,GuessTheSound,2020.2.10,59.95121169534463,
Initial/Repeat/Sneeze_B.wav,2,3,NEW,,,,,0,47,47,47,,,,,,,,,,,,,,,,,,,,,,,,,,,,,,,,,,,,,,,,,,,,,,,,,,,,,,,,,,,,,,,,,,,,,,,,,,,,,,250.67074890004005,None,252.2041121100192,None,252.20737239997834,None,252.20737239997834,None,253.43768790003378,None,1,0,1.526100100018084,253.43768790003378,None,,001,2021_Feb_17_1606,GuessTheSound,2020.2.10,59.95121169534463,
Initial/NoRepeat/Snore_B.wav,2,3,NEW,,,,,0,48,48,48,,,,,,,,,,,,,,,,,,,,,,,,,,,,,,,,,,,,,,,,,,,,,,,,,,,,,,,,,,,,,,,,,,,,,,,,,,,,,,254.98772069998085,None,256.5542088499642,None,256.55162609997205,None,256.55162609997205,None,258.85431570000947,None,2,1,0.6014484000625089,258.85431570000947,None,,001,2021_Feb_17_1606,GuessTheSound,2020.2.10,59.95121169534463,
Test/Lures/Guitar_B.wav,1,1,OLD,,,,,0,49,49,49,,,,,,,,,,,,,,,,,,,,,,,,,,,,,,,,,,,,,,,,,,,,,,,,,,,,,,,,,,,,,,,,,,,,,,,,,,,,,,259.47126130003016,None,260.987405939959,None,260.9831796999788,None,260.9831796999788,None,263.287633299944,None,1,1,0.3661914999829605,263.287633299944,None,,001,2021_Feb_17_1606,GuessTheSound,2020.2.10,59.95121169534463,
Initial/Doubled/Cat_A.wav,2,3,NEW,,,,,0,50,50,50,,,,,,,,,,,,,,,,,,,,,,,,,,,,,,,,,,,,,,,,,,,,,,,,,,,,,,,,,,,,,,,,,,,,,,,,,,,,,,263.67042990005575,None,265.2038518100162,None,265.2069582999684,None,265.2069582999684,None,266.6207103000488,None,2,1,0.32753190002404153,266.6207103000488,None,,001,2021_Feb_17_1606,GuessTheSound,2020.2.10,59.95121169534463,
Initial/Repeat/Whistle_A.wav,2,3,NEW,,,,,0,51,51,51,,,,,,,,,,,,,,,,,,,,,,,,,,,,,,,,,,,,,,,,,,,,,,,,,,,,,,,,,,,,,,,,,,,,,,,,,,,,,,266.97056170005817,None,268.5039554100367,None,268.5070221000351,None,268.5070221000351,None,270.00430220004637,None,2,1,0.5101727999281138,270.00430220004637,None,,001,2021_Feb_17_1606,GuessTheSound,2020.2.10,59.95121169534463,
Initial/NoRepeat/Faucet_A.wav,1,1,OLD,,,,,0,52,52,52,,,,,,,,,,,,,,,,,,,,,,,,,,,,,,,,,,,,,,,,,,,,,,,,,,,,,,,,,,,,,,,,,,,,,,,,,,,,,,270.53705080004875,None,272.0371663700207,None,272.04497219994664,None,272.04497219994664,None,274.3542752000503,None,1,1,0.35735009994823486,274.3542752000503,None,,001,2021_Feb_17_1606,GuessTheSound,2020.2.10,59.95121169534463,
Laugh_D.wav,2,2,SIMILAR,,,,,0,53,53,53,,,,,,,,,,,,,,,,,,,,,,,,,,,,,,,,,,,,,,,,,,,,,,,,,,,,,,,,,,,,,,,,,,,,,,,,,,,,,,274.7379820999922,None,276.25383254000917,None,276.24876989994664,None,276.24876989994664,None,278.55412470002193,None,1,0,0.6809957000659779,278.55412470002193,None,,001,2021_Feb_17_1606,GuessTheSound,2020.2.10,59.95121169534463,
Initial/Doubled/Chicken_A.wav,1,1,OLD,,,,,0,54,54,54,,,,,,,,,,,,,,,,,,,,,,,,,,,,,,,,,,,,,,,,,,,,,,,,,,,,,,,,,,,,,,,,,,,,,,,,,,,,,,279.2548873999622,None,280.7705540699535,None,280.77643580001313,None,280.77643580001313,None,282.45385339995846,None,1,1,1.910310999955982,282.45385339995846,None,,001,2021_Feb_17_1606,GuessTheSound,2020.2.10,59.95121169534463,
Initial/Repeat/Bagpipe.wav,2,3,NEW,,,,,0,55,55,55,,,,,,,,,,,,,,,,,,,,,,,,,,,,,,,,,,,,,,,,,,,,,,,,,,,,,,,,,,,,,,,,,,,,,,,,,,,,,,284.3882440000307,None,285.9368641100009,None,285.94618039997295,None,285.94618039997295,None,288.25371990003623,None,2,1,0.33624820003751665,288.25371990003623,None,,001,2021_Feb_17_1606,GuessTheSound,2020.2.10,59.95121169534463,
Initial/Repeat/IceDrop.wav,1,1,OLD,,,,,0,56,56,56,,,,,,,,,,,,,,,,,,,,,,,,,,,,,,,,,,,,,,,,,,,,,,,,,,,,,,,,,,,,,,,,,,,,,,,,,,,,,,288.62013890000526,None,290.12046327005373,None,290.1315249999752,None,290.1315249999752,None,292.4370996999787,None,1,1,0.8789068999467418,292.4370996999787,None,,001,2021_Feb_17_1606,GuessTheSound,2020.2.10,59.95121169534463,
Chomp_B.wav,2,3,NEW,,,,,0,57,57,57,,,,,,,,,,,,,,,,,,,,,,,,,,,,,,,,,,,,,,,,,,,,,,,,,,,,,,,,,,,,,,,,,,,,,,,,,,,,,,293.3374267000472,None,294.85362624004483,None,294.85647430003155,None,294.85647430003155,None,297.15379659994505,None,2,1,0.46071339992340654,297.15379659994505,None,,001,2021_Feb_17_1606,GuessTheSound,2020.2.10,59.95121169534463,
Initial/Repeat/Airplane_B.wav,1,1,OLD,,,,,0,58,58,58,,,,,,,,,,,,,,,,,,,,,,,,,,,,,,,,,,,,,,,,,,,,,,,,,,,,,,,,,,,,,,,,,,,,,,,,,,,,,,297.6377171999775,None,299.1536652400391,None,299.1501737999497,None,299.1501737999497,None,301.45384650002234,None,1,1,0.7708165999501944,301.45384650002234,None,,001,2021_Feb_17_1606,GuessTheSound,2020.2.10,59.95121169534463,
Test/Foils/Bird.wav,2,2,SIMILAR,,,,,0,59,59,59,,,,,,,,,,,,,,,,,,,,,,,,,,,,,,,,,,,,,,,,,,,,,,,,,,,,,,,,,,,,,,,,,,,,,,,,,,,,,,302.2532920000376,None,303.80345728003886,None,303.80375159997493,None,303.80375159997493,None,306.10386140004266,None,2,1,1.0286434999434277,306.10386140004266,None,,001,2021_Feb_17_1606,GuessTheSound,2020.2.10,59.95121169534463,
Cough_C.wav,2,2,SIMILAR,,,,,0,60,60,60,,,,,,,,,,,,,,,,,,,,,,,,,,,,,,,,,,,,,,,,,,,,,,,,,,,,,,,,,,,,,,,,,,,,,,,,,,,,,,307.1535847999621,None,308.67004563997034,None,308.6689015000593,None,308.6689015000593,None,310.1369022000581,None,2,1,0.4619037000229582,310.1369022000581,None,,001,2021_Feb_17_1606,GuessTheSound,2020.2.10,59.95121169534463,
Test/Foils/Wind_B.wav,2,3,NEW,,,,,0,61,61,61,,,,,,,,,,,,,,,,,,,,,,,,,,,,,,,,,,,,,,,,,,,,,,,,,,,,,,,,,,,,,,,,,,,,,,,,,,,,,,310.6212220999878,None,312.1867695800029,None,312.1794667999493,None,312.1794667999493,None,314.48687310004607,None,2,1,0.027652200078591704,314.48687310004607,None,,001,2021_Feb_17_1606,GuessTheSound,2020.2.10,59.95121169534463,
Initial/Repeat/Cup.wav,2,3,NEW,,,,,0,62,62,62,,,,,,,,,,,,,,,,,,,,,,,,,,,,,,,,,,,,,,,,,,,,,,,,,,,,,,,,,,,,,,,,,,,,,,,,,,,,,,314.5364199000178,None,316.0700456100167,None,316.0685828999849,None,316.0685828999849,None,317.40393839997705,None,2,1,0.30884250008966774,317.40393839997705,None,,001,2021_Feb_17_1606,GuessTheSound,2020.2.10,59.95121169534463,
Initial/NoRepeat/Snore_B.wav,1,1,OLD,,,,,0,63,63,63,,,,,,,,,,,,,,,,,,,,,,,,,,,,,,,,,,,,,,,,,,,,,,,,,,,,,,,,,,,,,,,,,,,,,,,,,,,,,,317.73717660002876,None,319.2535085399868,None,319.24709590000566,None,319.24709590000566,None,321.55366179998964,None,1,1,0.386238900013268,321.55366179998964,None,,001,2021_Feb_17_1606,GuessTheSound,2020.2.10,59.95121169534463,
Whistle_B.wav,2,2,SIMILAR,,,,,0,64,64,64,,,,,,,,,,,,,,,,,,,,,,,,,,,,,,,,,,,,,,,,,,,,,,,,,,,,,,,,,,,,,,,,,,,,,,,,,,,,,,321.97047449997626,None,323.52003887994215,None,323.5150740999961,None,323.5150740999961,None,325.82007330004126,None,2,1,0.4741761999903247,325.82007330004126,None,,001,2021_Feb_17_1606,GuessTheSound,2020.2.10,59.95121169534463,
Initial/Repeat/Sneeze_B.wav,1,1,OLD,,,,,0,65,65,65,,,,,,,,,,,,,,,,,,,,,,,,,,,,,,,,,,,,,,,,,,,,,,,,,,,,,,,,,,,,,,,,,,,,,,,,,,,,,,326.32138630002737,None,327.8365960700321,None,327.8410858999705,None,327.8410858999705,None,329.0702378000133,None,1,1,0.87828800000716,329.0702378000133,None,,001,2021_Feb_17_1606,GuessTheSound,2020.2.10,59.95121169534463,
Initial/NoRepeat/Cow.wav,2,3,NEW,,,,,0,66,66,66,,,,,,,,,,,,,,,,,,,,,,,,,,,,,,,,,,,,,,,,,,,,,,,,,,,,,,,,,,,,,,,,,,,,,,,,,,,,,,329.96963910001796,None,331.50340371002676,None,331.5109219000442,None,331.5109219000442,None,333.3536911000265,None,2,1,0.4618070999858901,333.3536911000265,None,,001,2021_Feb_17_1606,GuessTheSound,2020.2.10,59.95121169534463,
Initial/Doubled/Cat_A.wav,1,1,OLD,,,,,0,67,67,67,,,,,,,,,,,,,,,,,,,,,,,,,,,,,,,,,,,,,,,,,,,,,,,,,,,,,,,,,,,,,,,,,,,,,,,,,,,,,,333.837297399994,None,335.33639357000357,None,335.3455969999777,None,335.3455969999777,None,336.7699606999522,None,1,1,0.38003709993790835,336.7699606999522,None,,001,2021_Feb_17_1606,GuessTheSound,2020.2.10,59.95121169534463,
Initial/Doubled/Chicken_A.wav,1,1,OLD,,,,,0,68,68,68,,,,,,,,,,,,,,,,,,,,,,,,,,,,,,,,,,,,,,,,,,,,,,,,,,,,,,,,,,,,,,,,,,,,,,,,,,,,,,337.1705536999507,None,338.6698961699731,None,338.68103460001294,None,338.68103460001294,None,340.37012940004934,None,1,1,0.3491376999299973,340.37012940004934,None,,001,2021_Feb_17_1606,GuessTheSound,2020.2.10,59.95121169534463,
Phone_D.wav,2,3,NEW,,,,,0,69,69,69,,,,,,,,,,,,,,,,,,,,,,,,,,,,,,,,,,,,,,,,,,,,,,,,,,,,,,,,,,,,,,,,,,,,,,,,,,,,,,340.73620689997915,None,342.25319514004514,None,342.2639026000397,None,342.2639026000397,None,344.56992140004877,None,2,1,0.523679899983108,344.56992140004877,None,,001,2021_Feb_17_1606,GuessTheSound,2020.2.10,59.95121169534463,
Initial/Repeat/Bagpipe.wav,1,1,OLD,,,,,0,70,70,70,,,,,,,,,,,,,,,,,,,,,,,,,,,,,,,,,,,,,,,,,,,,,,,,,,,,,,,,,,,,,,,,,,,,,,,,,,,,,,345.1191675000591,None,346.62006886996096,None,346.619757700013,None,346.619757700013,None,348.9194256999763,None,1,1,0.3679685000097379,348.9194256999763,None,,001,2021_Feb_17_1606,GuessTheSound,2020.2.10,59.95121169534463,
Chomp_C.wav,2,2,SIMILAR,,,,,0,71,71,71,,,,,,,,,,,,,,,,,,,,,,,,,,,,,,,,,,,,,,,,,,,,,,,,,,,,,,,,,,,,,,,,,,,,,,,,,,,,,,349.30279169999994,None,350.802775070013,None,350.80237020005006,None,350.80237020005006,None,353.10265759995673,None,2,1,0.5677572999848053,353.10265759995673,None,,001,2021_Feb_17_1606,GuessTheSound,2020.2.10,59.95121169534463,
Initial/Repeat/Cup.wav,1,1,OLD,,,,,0,72,72,72,,,,,,,,,,,,,,,,,,,,,,,,,,,,,,,,,,,,,,,,,,,,,,,,,,,,,,,,,,,,,,,,,,,,,,,,,,,,,,353.68611669994425,None,355.18586066999706,None,355.1861407000106,None,355.1861407000106,None,356.51941750000697,None,1,1,0.8862000999506563,356.51941750000697,None,,001,2021_Feb_17_1606,GuessTheSound,2020.2.10,59.95121169534463,
Initial/Repeat/Sneeze_B.wav,1,1,OLD,,,,,0,73,73,73,,,,,,,,,,,,,,,,,,,,,,,,,,,,,,,,,,,,,,,,,,,,,,,,,,,,,,,,,,,,,,,,,,,,,,,,,,,,,,357.43664009997156,None,358.9360082699568,None,358.93606009997893,None,358.93606009997893,None,360.16940280003473,None,1,1,0.36666210007388145,360.16940280003473,None,,001,2021_Feb_17_1606,GuessTheSound,2020.2.10,59.95121169534463,
Initial/Repeat/Airplane_B.wav,1,1,OLD,,,,,0,74,74,74,,,,,,,,,,,,,,,,,,,,,,,,,,,,,,,,,,,,,,,,,,,,,,,,,,,,,,,,,,,,,,,,,,,,,,,,,,,,,,360.55277509998996,None,362.0676718700561,None,362.06921720004175,None,362.06921720004175,None,364.36925099999644,None,1,1,0.3329903999110684,364.36925099999644,None,,001,2021_Feb_17_1606,GuessTheSound,2020.2.10,59.95121169534463,
Test/Foils/Wind_B.wav,1,1,OLD,,,,,0,75,75,75,,,,,,,,,,,,,,,,,,,,,,,,,,,,,,,,,,,,,,,,,,,,,,,,,,,,,,,,,,,,,,,,,,,,,,,,,,,,,,364.7190613000421,None,366.2190613699495,None,366.21947869996075,None,366.21947869996075,None,368.51920590002555,None,1,1,0.9547300999984145,368.51920590002555,None,,001,2021_Feb_17_1606,GuessTheSound,2020.2.10,59.95121169534463,
Phone_C.wav,2,2,SIMILAR,,,,,0,76,76,76,,,,,,,,,,,,,,,,,,,,,,,,,,,,,,,,,,,,,,,,,,,,,,,,,,,,,,,,,,,,,,,,,,,,,,,,,,,,,,369.5025552000152,None,371.0198197399732,None,371.02426189999096,None,371.02426189999096,None,373.3365057000192,None,2,1,1.2156189000234008,373.3365057000192,None,,001,2021_Feb_17_1606,GuessTheSound,2020.2.10,59.95121169534463,
Initial/Doubled/Cat_A.wav,1,1,OLD,,,,,0,77,77,77,,,,,,,,,,,,,,,,,,,,,,,,,,,,,,,,,,,,,,,,,,,,,,,,,,,,,,,,,,,,,,,,,,,,,,,,,,,,,,374.57074989995454,None,376.0858196700574,None,376.0893670000369,None,376.0893670000369,None,377.50312789995223,None,1,1,0.35464349994435906,377.50312789995223,None,,001,2021_Feb_17_1606,GuessTheSound,2020.2.10,59.95121169534463,
Initial/Doubled/Chomp_A.wav,2,2,SIMILAR,,,,,0,78,78,78,,,,,,,,,,,,,,,,,,,,,,,,,,,,,,,,,,,,,,,,,,,,,,,,,,,,,,,,,,,,,,,,,,,,,,,,,,,,,,377.8859904999845,None,379.4191587099922,None,379.42291199998,None,379.42291199998,None,381.73636630002875,None,2,1,0.4637607999611646,381.73636630002875,None,,001,2021_Feb_17_1606,GuessTheSound,2020.2.10,59.95121169534463,
Initial/NoRepeat/Cow.wav,1,1,OLD,,,,,0,79,79,79,,,,,,,,,,,,,,,,,,,,,,,,,,,,,,,,,,,,,,,,,,,,,,,,,,,,,,,,,,,,,,,,,,,,,,,,,,,,,,382.2202504000161,None,383.71939886995824,None,383.7297838999657,None,383.7297838999657,None,385.56962520000525,None,1,1,0.2072817999869585,385.56962520000525,None,,001,2021_Feb_17_1606,GuessTheSound,2020.2.10,59.95121169534463,
Whistle_C.wav,2,2,SIMILAR,,,,,0,80,80,80,,,,,,,,,,,,,,,,,,,,,,,,,,,,,,,,,,,,,,,,,,,,,,,,,,,,,,,,,,,,,,,,,,,,,,,,,,,,,,385.8024357999675,None,387.3527299800189,None,387.34806720004417,None,387.34806720004417,None,389.65354129998013,None,2,1,0.45853549998719245,389.65354129998013,None,,001,2021_Feb_17_1606,GuessTheSound,2020.2.10,59.95121169534463,
Initial/NoRepeat/Snore_B.wav,1,1,OLD,,,,,0,81,81,81,,,,,,,,,,,,,,,,,,,,,,,,,,,,,,,,,,,,,,,,,,,,,,,,,,,,,,,,,,,,,,,,,,,,,,,,,,,,,,390.13533289998304,None,391.6524231400108,None,391.6459604999982,None,391.6459604999982,None,393.95302779995836,None,2,0,0.2935937999282032,393.95302779995836,None,,001,2021_Feb_17_1606,GuessTheSound,2020.2.10,59.95121169534463,
Initial/Doubled/Siren_A.wav,2,3,NEW,,,,,0,82,82,82,,,,,,,,,,,,,,,,,,,,,,,,,,,,,,,,,,,,,,,,,,,,,,,,,,,,,,,,,,,,,,,,,,,,,,,,,,,,,,394.2719347999664,None,395.81911811005557,None,395.8197508000303,None,395.8197508000303,None,398.11936350003816,None,2,1,1.5460076000308618,398.11936350003816,None,,001,2021_Feb_17_1606,GuessTheSound,2020.2.10,59.95121169534463,
Initial/Repeat/Bagpipe.wav,1,1,OLD,,,,,0,83,83,83,,,,,,,,,,,,,,,,,,,,,,,,,,,,,,,,,,,,,,,,,,,,,,,,,,,,,,,,,,,,,,,,,,,,,,,,,,,,,,399.6869328999892,None,401.20259616995463,None,401.2070393000031,None,401.2070393000031,None,403.5190969000105,None,1,1,0.5699581999797374,403.5190969000105,None,,001,2021_Feb_17_1606,GuessTheSound,2020.2.10,59.95121169534463,
Initial/Repeat/Cup.wav,1,1,OLD,,,,,0,84,84,84,,,,,,,,,,,,,,,,,,,,,,,,,,,,,,,,,,,,,,,,,,,,,,,,,,,,,,,,,,,,,,,,,,,,,,,,,,,,,,404.1197640999453,None,405.61905826994916,None,405.6242757999571,None,405.6242757999571,None,406.9526168999728,None,1,1,0.35087220009882003,406.9526168999728,None,,001,2021_Feb_17_1606,GuessTheSound,2020.2.10,59.95121169534463,
Initial/NoRepeat/Footsteps_B.wav,2,3,NEW,,,,,0,85,85,85,,,,,,,,,,,,,,,,,,,,,,,,,,,,,,,,,,,,,,,,,,,,,,,,,,,,,,,,,,,,,,,,,,,,,,,,,,,,,,407.31924590002745,None,408.85255720996065,None,408.86228789994493,None,408.86228789994493,None,411.16907129995525,None,2,1,0.3622428000671789,411.16907129995525,None,,001,2021_Feb_17_1606,GuessTheSound,2020.2.10,59.95121169534463,
Initial/NoRepeat/Fireworks.wav,2,3,NEW,,,,,0,86,86,86,,,,,,,,,,,,,,,,,,,,,,,,,,,,,,,,,,,,,,,,,,,,,,,,,,,,,,,,,,,,,,,,,,,,,,,,,,,,,,411.55223050003406,None,413.10225698002614,None,413.097501100041,None,413.097501100041,None,415.4027462999802,None,2,1,0.40863310010172427,415.4027462999802,None,,001,2021_Feb_17_1606,GuessTheSound,2020.2.10,59.95121169534463,
Test/Foils/Bullfrog.wav,2,3,NEW,,,,,0,87,87,87,,,,,,,,,,,,,,,,,,,,,,,,,,,,,,,,,,,,,,,,,,,,,,,,,,,,,,,,,,,,,,,,,,,,,,,,,,,,,,415.8360141000012,None,417.36887250997825,None,417.36942120001186,None,417.36942120001186,None,419.6691619999474,None,2,1,0.48596189997624606,419.6691619999474,None,,001,2021_Feb_17_1606,GuessTheSound,2020.2.10,59.95121169534463,
Initial/Repeat/Phone_A.wav,2,2,SIMILAR,,,,,0,88,88,88,,,,,,,,,,,,,,,,,,,,,,,,,,,,,,,,,,,,,,,,,,,,,,,,,,,,,,,,,,,,,,,,,,,,,,,,,,,,,,420.1862180000171,None,421.7186470099841,None,421.7166432000231,None,421.7166432000231,None,424.01912029995583,None,2,1,1.6831936999224126,424.01912029995583,None,,001,2021_Feb_17_1606,GuessTheSound,2020.2.10,59.95121169534463,
Initial/Doubled/HairDryer_A.wav,2,3,NEW,,,,,0,89,89,89,,,,,,,,,,,,,,,,,,,,,,,,,,,,,,,,,,,,,,,,,,,,,,,,,,,,,,,,,,,,,,,,,,,,,,,,,,,,,,425.71917599998415,None,427.2690485799685,None,427.2652360999491,None,427.2652360999491,None,429.56899099994916,None,2,1,0.3214680999517441,429.56899099994916,None,,001,2021_Feb_17_1606,GuessTheSound,2020.2.10,59.95121169534463,
Initial/Doubled/Cuckoo_A.wav,2,3,NEW,,,,,0,90,90,90,,,,,,,,,,,,,,,,,,,,,,,,,,,,,,,,,,,,,,,,,,,,,,,,,,,,,,,,,,,,,,,,,,,,,,,,,,,,,,429.91865170001984,None,431.46903158002533,None,431.46589560003486,None,431.46589560003486,None,433.7688837000169,None,2,1,0.08108450006693602,433.7688837000169,None,,001,2021_Feb_17_1606,GuessTheSound,2020.2.10,59.95121169534463,
Initial/Repeat/Howl.wav,2,3,NEW,,,,,0,91,91,91,,,,,,,,,,,,,,,,,,,,,,,,,,,,,,,,,,,,,,,,,,,,,,,,,,,,,,,,,,,,,,,,,,,,,,,,,,,,,,433.87246460001916,None,435.4353263799567,None,435.43191190005746,None,435.43191190005746,None,437.7357082000235,None,2,1,0.709719100035727,437.7357082000235,None,,001,2021_Feb_17_1606,GuessTheSound,2020.2.10,59.95121169534463,
Initial/NoRepeat/Cow.wav,1,1,OLD,,,,,0,92,92,92,,,,,,,,,,,,,,,,,,,,,,,,,,,,,,,,,,,,,,,,,,,,,,,,,,,,,,,,,,,,,,,,,,,,,,,,,,,,,,438.46951179997995,None,439.9854620399419,None,439.97932239994407,None,439.97932239994407,None,441.81901930004824,None,1,1,0.5804601999698207,441.81901930004824,None,,001,2021_Feb_17_1606,GuessTheSound,2020.2.10,59.95121169534463,
Test/Foils/Wind_B.wav,1,1,OLD,,,,,0,93,93,93,,,,,,,,,,,,,,,,,,,,,,,,,,,,,,,,,,,,,,,,,,,,,,,,,,,,,,,,,,,,,,,,,,,,,,,,,,,,,,442.4196827999549,None,443.9355664399918,None,443.9331893000053,None,443.9331893000053,None,446.2357511000009,None,1,1,0.3749085000017658,446.2357511000009,None,,001,2021_Feb_17_1606,GuessTheSound,2020.2.10,59.95121169534463,
Initial/NoRepeat/Footsteps_B.wav,1,1,OLD,,,,,0,94,94,94,,,,,,,,,,,,,,,,,,,,,,,,,,,,,,,,,,,,,,,,,,,,,,,,,,,,,,,,,,,,,,,,,,,,,,,,,,,,,,446.6359773000004,None,448.1518376399763,None,448.1489373999648,None,448.1489373999648,None,450.45243720000144,None,1,1,1.0922997000161558,450.45243720000144,None,,001,2021_Feb_17_1606,GuessTheSound,2020.2.10,59.95121169534463,
Initial/Doubled/Dog_A.wav,2,3,NEW,,,,,0,95,95,95,,,,,,,,,,,,,,,,,,,,,,,,,,,,,,,,,,,,,,,,,,,,,,,,,,,,,,,,,,,,,,,,,,,,,,,,,,,,,,451.5688413999742,None,453.118832880049,None,453.1160503999563,None,453.1160503999563,None,455.4188789000036,None,1,0,0.424424699973315,455.4188789000036,None,,001,2021_Feb_17_1606,GuessTheSound,2020.2.10,59.95121169534463,
Initial/Doubled/Clap_A.wav,2,3,NEW,,,,,0,96,96,96,,,,,,,,,,,,,,,,,,,,,,,,,,,,,,,,,,,,,,,,,,,,,,,,,,,,,,,,,,,,,,,,,,,,,,,,,,,,,,455.8698961000191,None,457.4184011100442,None,457.4263829999836,None,457.4263829999836,None,459.7356290000025,None,2,1,0.08467079990077764,459.7356290000025,None,,001,2021_Feb_17_1606,GuessTheSound,2020.2.10,59.95121169534463,
Initial/NoRepeat/Fireworks.wav,1,1,OLD,,,,,0,97,97,97,,,,,,,,,,,,,,,,,,,,,,,,,,,,,,,,,,,,,,,,,,,,,,,,,,,,,,,,,,,,,,,,,,,,,,,,,,,,,,459.8519299000036,None,461.3687082399847,None,461.3661689000437,None,461.3661689000437,None,463.6685986999655,None,1,1,0.2356918000150472,463.6685986999655,None,,001,2021_Feb_17_1606,GuessTheSound,2020.2.10,59.95121169534463,
Test/Foils/Bullfrog.wav,1,1,OLD,,,,,0,98,98,98,,,,,,,,,,,,,,,,,,,,,,,,,,,,,,,,,,,,,,,,,,,,,,,,,,,,,,,,,,,,,,,,,,,,,,,,,,,,,,463.9356972000096,None,465.4516869400395,None,465.45759570004884,None,465.45759570004884,None,467.76867549994495,None,1,1,0.6796140000224113,467.76867549994495,None,,001,2021_Feb_17_1606,GuessTheSound,2020.2.10,59.95121169534463,
Initial/Repeat/PaperRip.wav,2,3,NEW,,,,,0,99,99,99,,,,,,,,,,,,,,,,,,,,,,,,,,,,,,,,,,,,,,,,,,,,,,,,,,,,,,,,,,,,,,,,,,,,,,,,,,,,,,468.46865779999644,None,470.0184951799456,None,470.017651299946,None,470.017651299946,None,471.61856039997656,None,2,1,0.34615749993827194,471.61856039997656,None,,001,2021_Feb_17_1606,GuessTheSound,2020.2.10,59.95121169534463,
Siren_C.wav,2,2,SIMILAR,,,,,0,100,100,100,,,,,,,,,,,,,,,,,,,,,,,,,,,,,,,,,,,,,,,,,,,,,,,,,,,,,,,,,,,,,,,,,,,,,,,,,,,,,,471.98508090001997,None,473.518233210023,None,473.520852799993,None,473.520852799993,None,475.81849840003997,None,2,1,0.30554299999494106,475.81849840003997,None,,001,2021_Feb_17_1606,GuessTheSound,2020.2.10,59.95121169534463,
Goat_A.wav,2,3,NEW,,,,,0,101,101,101,,,,,,,,,,,,,,,,,,,,,,,,,,,,,,,,,,,,,,,,,,,,,,,,,,,,,,,,,,,,,,,,,,,,,,,,,,,,,,476.1515035999473,None,477.66852404002566,None,477.67376000003424,None,477.67376000003424,None,479.9854030000279,None,2,1,0.5315560000017285,479.9854030000279,None,,001,2021_Feb_17_1606,GuessTheSound,2020.2.10,59.95121169534463,
Initial/Doubled/HairDryer_A.wav,1,1,OLD,,,,,0,102,102,102,,,,,,,,,,,,,,,,,,,,,,,,,,,,,,,,,,,,,,,,,,,,,,,,,,,,,,,,,,,,,,,,,,,,,,,,,,,,,,480.5350410999963,None,482.0347483700025,None,482.03816250001546,None,482.03816250001546,None,484.3517658000346,None,1,1,0.2772678999463096,484.3517658000346,None,,001,2021_Feb_17_1606,GuessTheSound,2020.2.10,59.95121169534463,
Initial/Doubled/Cuckoo_A.wav,1,1,OLD,,,,,0,103,103,103,,,,,,,,,,,,,,,,,,,,,,,,,,,,,,,,,,,,,,,,,,,,,,,,,,,,,,,,,,,,,,,,,,,,,,,,,,,,,,484.65149630000815,None,486.151417170011,None,486.1615491999546,None,486.1615491999546,None,488.46819699998014,None,1,1,1.019391700043343,488.46819699998014,None,,001,2021_Feb_17_1606,GuessTheSound,2020.2.10,59.95121169534463,
Initial/Repeat/Howl.wav,1,1,OLD,,,,,0,104,104,104,,,,,,,,,,,,,,,,,,,,,,,,,,,,,,,,,,,,,,,,,,,,,,,,,,,,,,,,,,,,,,,,,,,,,,,,,,,,,,489.51803799998015,None,491.0347618400119,None,491.0319345999742,None,491.0319345999742,None,493.3351873999927,None,1,1,0.39612450008280575,493.3351873999927,None,,001,2021_Feb_17_1606,GuessTheSound,2020.2.10,59.95121169534463,
Initial/NoRepeat/Helicopter_A.wav,2,3,NEW,,,,,0,105,105,105,,,,,,,,,,,,,,,,,,,,,,,,,,,,,,,,,,,,,,,,,,,,,,,,,,,,,,,,,,,,,,,,,,,,,,,,,,,,,,493.75326729996596,None,495.30152320995694,None,495.307005599956,None,495.307005599956,None,497.6181860000361,None,1,0,2.5728549000341445,497.6181860000361,None,,001,2021_Feb_17_1606,GuessTheSound,2020.2.10,59.95121169534463,
Test/Foils/Bullfrog.wav,1,1,OLD,,,,,0,106,106,106,,,,,,,,,,,,,,,,,,,,,,,,,,,,,,,,,,,,,,,,,,,,,,,,,,,,,,,,,,,,,,,,,,,,,,,,,,,,,,500.2178299999796,None,501.7346161400201,None,501.73314000002574,None,501.73314000002574,None,504.03524150000885,None,1,1,0.5592925000237301,504.03524150000885,None,,001,2021_Feb_17_1606,GuessTheSound,2020.2.10,59.95121169534463,
Initial/Repeat/ManWhistle.wav,2,3,NEW,,,,,0,107,107,107,,,,,,,,,,,,,,,,,,,,,,,,,,,,,,,,,,,,,,,,,,,,,,,,,,,,,,,,,,,,,,,,,,,,,,,,,,,,,,504.6190253000241,None,506.1514763100422,None,506.1624757000245,None,506.1624757000245,None,508.38514659996144,None,2,1,1.1784159999806434,508.38514659996144,None,,001,2021_Feb_17_1606,GuessTheSound,2020.2.10,59.95121169534463,
Initial/NoRepeat/Footsteps_B.wav,1,1,OLD,,,,,0,108,108,108,,,,,,,,,,,,,,,,,,,,,,,,,,,,,,,,,,,,,,,,,,,,,,,,,,,,,,,,,,,,,,,,,,,,,,,,,,,,,,509.5844852000009,None,511.0841780700139,None,511.0863416000502,None,511.0863416000502,None,513.3850206000498,None,2,0,1.0266814000206068,513.3850206000498,None,,001,2021_Feb_17_1606,GuessTheSound,2020.2.10,59.95121169534463,
Initial/Doubled/Growl_A.wav,2,3,NEW,,,,,0,109,109,109,,,,,,,,,,,,,,,,,,,,,,,,,,,,,,,,,,,,,,,,,,,,,,,,,,,,,,,,,,,,,,,,,,,,,,,,,,,,,,514.4345194000052,None,515.9844980799826,None,515.9903349999804,None,515.9903349999804,None,518.3015355999814,None,2,1,0.40005629998631775,518.3015355999814,None,,001,2021_Feb_17_1606,GuessTheSound,2020.2.10,59.95121169534463,
Initial/Doubled/Clap_A.wav,1,1,OLD,,,,,0,110,110,110,,,,,,,,,,,,,,,,,,,,,,,,,,,,,,,,,,,,,,,,,,,,,,,,,,,,,,,,,,,,,,,,,,,,,,,,,,,,,,518.7178328000009,None,520.2178629700211,None,520.2262638000539,None,520.2262638000539,None,522.5349094000412,None,1,1,0.541229100083001,522.5349094000412,None,,001,2021_Feb_17_1606,GuessTheSound,2020.2.10,59.95121169534463,
Siren_B.wav,2,2,SIMILAR,,,,,0,111,111,111,,,,,,,,,,,,,,,,,,,,,,,,,,,,,,,,,,,,,,,,,,,,,,,,,,,,,,,,,,,,,,,,,,,,,,,,,,,,,,523.1012669999618,None,524.6514853800181,None,524.6474335000385,None,524.6474335000385,None,526.9516615000321,None,2,1,0.6074528999160975,526.9516615000321,None,,001,2021_Feb_17_1606,GuessTheSound,2020.2.10,59.95121169534463,
Dog_D.wav,2,2,SIMILAR,,,,,0,112,112,112,,,,,,,,,,,,,,,,,,,,,,,,,,,,,,,,,,,,,,,,,,,,,,,,,,,,,,,,,,,,,,,,,,,,,,,,,,,,,,527.5863228000235,None,529.1177066400414,None,529.1178958000382,None,529.1178958000382,None,531.1349836000009,None,2,1,0.37983320001512766,531.1349836000009,None,,001,2021_Feb_17_1606,GuessTheSound,2020.2.10,59.95121169534463,
Initial/NoRepeat/Fireworks.wav,1,1,OLD,,,,,0,113,113,113,,,,,,,,,,,,,,,,,,,,,,,,,,,,,,,,,,,,,,,,,,,,,,,,,,,,,,,,,,,,,,,,,,,,,,,,,,,,,,531.5354007000569,None,533.0510931700119,None,533.0593593999511,None,533.0593593999511,None,535.3679427000461,None,1,1,0.4261941999429837,535.3679427000461,None,,001,2021_Feb_17_1606,GuessTheSound,2020.2.10,59.95121169534463,
Test/Foils/Camera.wav,2,3,NEW,,,,,0,114,114,114,,,,,,,,,,,,,,,,,,,,,,,,,,,,,,,,,,,,,,,,,,,,,,,,,,,,,,,,,,,,,,,,,,,,,,,,,,,,,,535.8186631000135,None,537.3677688799798,None,537.3622912999708,None,537.3622912999708,None,538.3350069000153,None,2,1,0.5258094000164419,538.3350069000153,None,,001,2021_Feb_17_1606,GuessTheSound,2020.2.10,59.95121169534463,
Piano_B.wav,2,3,NEW,,,,,0,115,115,115,,,,,,,,,,,,,,,,,,,,,,,,,,,,,,,,,,,,,,,,,,,,,,,,,,,,,,,,,,,,,,,,,,,,,,,,,,,,,,538.8846546000568,None,540.4008181400131,None,540.4009900999954,None,540.4009900999954,None,542.7012862999691,None,2,1,0.33062660007271916,542.7012862999691,None,,001,2021_Feb_17_1606,GuessTheSound,2020.2.10,59.95121169534463,
Initial/Repeat/PaperRip.wav,1,1,OLD,,,,,0,116,116,116,,,,,,,,,,,,,,,,,,,,,,,,,,,,,,,,,,,,,,,,,,,,,,,,,,,,,,,,,,,,,,,,,,,,,,,,,,,,,,543.050906999968,None,544.5512101699715,None,544.5571805000072,None,544.5571805000072,None,546.1511521999491,None,1,1,0.35207489994354546,546.1511521999491,None,,001,2021_Feb_17_1606,GuessTheSound,2020.2.10,59.95121169534463,
Initial/Doubled/HairDryer_A.wav,1,1,OLD,,,,,0,117,117,117,,,,,,,,,,,,,,,,,,,,,,,,,,,,,,,,,,,,,,,,,,,,,,,,,,,,,,,,,,,,,,,,,,,,,,,,,,,,,,546.5344134999905,None,548.0341409700341,None,548.0430253000231,None,548.0430253000231,None,550.3513233000413,None,1,1,0.14287029998376966,550.3513233000413,None,,001,2021_Feb_17_1606,GuessTheSound,2020.2.10,59.95121169534463,
Initial/NoRepeat/Droplet_B.wav,2,3,NEW,,,,,0,118,118,118,,,,,,,,,,,,,,,,,,,,,,,,,,,,,,,,,,,,,,,,,,,,,,,,,,,,,,,,,,,,,,,,,,,,,,,,,,,,,,550.5181016999995,None,552.0510037099593,None,552.0593597999541,None,552.0593597999541,None,554.2176170999883,None,2,1,0.7783771000104025,554.2176170999883,None,,001,2021_Feb_17_1606,GuessTheSound,2020.2.10,59.95121169534463,
Initial/Doubled/Cuckoo_A.wav,1,1,OLD,,,,,0,119,119,119,,,,,,,,,,,,,,,,,,,,,,,,,,,,,,,,,,,,,,,,,,,,,,,,,,,,,,,,,,,,,,,,,,,,,,,,,,,,,,555.0185746999923,None,556.5343999400502,None,556.529379799962,None,556.529379799962,None,558.8346063999925,None,1,1,0.4486484999069944,558.8346063999925,None,,001,2021_Feb_17_1606,GuessTheSound,2020.2.10,59.95121169534463,
Initial/NoRepeat/Helicopter_A.wav,1,1,OLD,,,,,0,120,120,120,,,,,,,,,,,,,,,,,,,,,,,,,,,,,,,,,,,,,,,,,,,,,,,,,,,,,,,,,,,,,,,,,,,,,,,,,,,,,,559.3015183999669,None,560.8011252700235,None,560.8105908000143,None,560.8105908000143,None,563.1176253999583,None,1,1,1.3210425999714062,563.1176253999583,None,,001,2021_Feb_17_1606,GuessTheSound,2020.2.10,59.95121169534463,
CarStart_D.wav,2,3,NEW,,,,,0,121,121,121,,,,,,,,,,,,,,,,,,,,,,,,,,,,,,,,,,,,,,,,,,,,,,,,,,,,,,,,,,,,,,,,,,,,,,,,,,,,,,564.4673189000459,None,565.9840609399835,None,565.9920056000119,None,565.9920056000119,None,568.3011106000049,None,2,1,0.596007899963297,568.3011106000049,None,,001,2021_Feb_17_1606,GuessTheSound,2020.2.10,59.95121169534463,
Initial/Repeat/Howl.wav,1,1,OLD,,,,,0,122,122,122,,,,,,,,,,,,,,,,,,,,,,,,,,,,,,,,,,,,,,,,,,,,,,,,,,,,,,,,,,,,,,,,,,,,,,,,,,,,,,568.9178384999977,None,570.4174582700361,None,570.4265613999451,None,570.4265613999451,None,572.7343925000168,None,1,1,0.44920049991924316,572.7343925000168,None,,001,2021_Feb_17_1606,GuessTheSound,2020.2.10,59.95121169534463,
Growl_B.wav,2,2,SIMILAR,,,,,0,123,123,123,,,,,,,,,,,,,,,,,,,,,,,,,,,,,,,,,,,,,,,,,,,,,,,,,,,,,,,,,,,,,,,,,,,,,,,,,,,,,,573.20090419997,None,574.7178249399876,None,574.7222281000577,None,574.7222281000577,None,577.0174427999882,None,2,1,1.0684710999485105,577.0174427999882,None,,001,2021_Feb_17_1606,GuessTheSound,2020.2.10,59.95121169534463,
Goat_C.wav,2,2,SIMILAR,,,,,0,124,124,124,,,,,,,,,,,,,,,,,,,,,,,,,,,,,,,,,,,,,,,,,,,,,,,,,,,,,,,,,,,,,,,,,,,,,,,,,,,,,,578.1021239999682,None,579.6339990400011,None,579.6354148000246,None,579.6354148000246,None,581.4509446000447,None,2,1,0.44984360004309565,581.4509446000447,None,,001,2021_Feb_17_1606,GuessTheSound,2020.2.10,59.95121169534463,
Test/Foils/Donkey.wav,2,3,NEW,,,,,0,125,125,125,,,,,,,,,,,,,,,,,,,,,,,,,,,,,,,,,,,,,,,,,,,,,,,,,,,,,,,,,,,,,,,,,,,,,,,,,,,,,,581.9172140000155,None,583.433314039954,None,583.435358799994,None,583.435358799994,None,585.7342079000082,None,1,0,0.36043110000900924,585.7342079000082,None,,001,2021_Feb_17_1606,GuessTheSound,2020.2.10,59.95121169534463,
Initial/Repeat/PaperRip.wav,1,1,OLD,,,,,0,126,126,126,,,,,,,,,,,,,,,,,,,,,,,,,,,,,,,,,,,,,,,,,,,,,,,,,,,,,,,,,,,,,,,,,,,,,,,,,,,,,,586.1182117999997,None,587.6173352699843,None,587.6248294999823,None,587.6248294999823,None,589.2173017000314,None,1,1,0.48381630005314946,589.2173017000314,None,,001,2021_Feb_17_1606,GuessTheSound,2020.2.10,59.95121169534463,
Dog_C.wav,2,2,SIMILAR,,,,,0,127,127,127,,,,,,,,,,,,,,,,,,,,,,,,,,,,,,,,,,,,,,,,,,,,,,,,,,,,,,,,,,,,,,,,,,,,,,,,,,,,,,589.7198176999809,None,591.2504621399567,None,591.2504572999896,None,591.2504572999896,None,593.2674875999801,None,2,1,0.7404565000906587,593.2674875999801,None,,001,2021_Feb_17_1606,GuessTheSound,2020.2.10,59.95121169534463,
ManWhistle_C.wav,2,2,SIMILAR,,,,,0,128,128,128,,,,,,,,,,,,,,,,,,,,,,,,,,,,,,,,,,,,,,,,,,,,,,,,,,,,,,,,,,,,,,,,,,,,,,,,,,,,,,594.0336979000131,None,595.5507931399625,None,595.5529891999904,None,595.5529891999904,None,597.0508394000353,None,2,1,0.6086689999792725,597.0508394000353,None,,001,2021_Feb_17_1606,GuessTheSound,2020.2.10,59.95121169534463,
Initial/Doubled/Piano_A.wav,2,2,SIMILAR,,,,,0,129,129,129,,,,,,,,,,,,,,,,,,,,,,,,,,,,,,,,,,,,,,,,,,,,,,,,,,,,,,,,,,,,,,,,,,,,,,,,,,,,,,597.6847427999601,None,599.2504572799662,None,599.2524961000308,None,599.2524961000308,None,601.5506737000542,None,2,1,0.4999630000675097,601.5506737000542,None,,001,2021_Feb_17_1606,GuessTheSound,2020.2.10,59.95121169534463,
Initial/Doubled/Clap_A.wav,1,1,OLD,,,,,0,130,130,130,,,,,,,,,,,,,,,,,,,,,,,,,,,,,,,,,,,,,,,,,,,,,,,,,,,,,,,,,,,,,,,,,,,,,,,,,,,,,,602.0665513999993,None,603.5671569699771,None,603.5760699999519,None,603.5760699999519,None,605.8843106999993,None,1,1,0.487204400007613,605.8843106999993,None,,001,2021_Feb_17_1606,GuessTheSound,2020.2.10,59.95121169534463,
CarStart_B.wav,2,2,SIMILAR,,,,,0,131,131,131,,,,,,,,,,,,,,,,,,,,,,,,,,,,,,,,,,,,,,,,,,,,,,,,,,,,,,,,,,,,,,,,,,,,,,,,,,,,,,606.4015154000372,None,607.9337926399894,None,607.9361059999792,None,607.9361059999792,None,610.233829200035,None,2,1,0.5087413999717683,610.233829200035,None,,001,2021_Feb_17_1606,GuessTheSound,2020.2.10,59.95121169534463,
Test/Foils/Camera.wav,1,1,OLD,,,,,0,132,132,132,,,,,,,,,,,,,,,,,,,,,,,,,,,,,,,,,,,,,,,,,,,,,,,,,,,,,,,,,,,,,,,,,,,,,,,,,,,,,,610.7668444999726,None,612.266978169966,None,612.2748276999919,None,612.2748276999919,None,613.2503350999905,None,1,1,1.0507597998948768,613.2503350999905,None,,001,2021_Feb_17_1606,GuessTheSound,2020.2.10,59.95121169534463,
Initial/NoRepeat/Droplet_B.wav,1,1,OLD,,,,,0,133,133,133,,,,,,,,,,,,,,,,,,,,,,,,,,,,,,,,,,,,,,,,,,,,,,,,,,,,,,,,,,,,,,,,,,,,,,,,,,,,,,614.3178737000562,None,615.8335990700289,None,615.8393024000106,None,615.8393024000106,None,618.0005087000318,None,1,1,2.448924700031057,618.0005087000318,None,,001,2021_Feb_17_1606,GuessTheSound,2020.2.10,59.95121169534463,
Initial/NoRepeat/Helicopter_A.wav,1,1,OLD,,,,,0,134,134,134,,,,,,,,,,,,,,,,,,,,,,,,,,,,,,,,,,,,,,,,,,,,,,,,,,,,,,,,,,,,,,,,,,,,,,,,,,,,,,620.4670472999569,None,621.9835100399796,None,621.9767356000375,None,621.9767356000375,None,624.2836858000373,None,1,1,0.33823200000915676,624.2836858000373,None,,001,2021_Feb_17_1606,GuessTheSound,2020.2.10,59.95121169534463,
Initial/NoRepeat/Goat_B.wav,2,2,SIMILAR,,,,,0,135,135,135,,,,,,,,,,,,,,,,,,,,,,,,,,,,,,,,,,,,,,,,,,,,,,,,,,,,,,,,,,,,,,,,,,,,,,,,,,,,,,624.6503922999837,None,626.1835655100294,None,626.1845323999878,None,626.1845323999878,None,628.3339906999609,None,2,1,0.575134199927561,628.3339906999609,None,,001,2021_Feb_17_1606,GuessTheSound,2020.2.10,59.95121169534463,
Test/Foils/Donkey.wav,1,1,OLD,,,,,0,136,136,136,,,,,,,,,,,,,,,,,,,,,,,,,,,,,,,,,,,,,,,,,,,,,,,,,,,,,,,,,,,,,,,,,,,,,,,,,,,,,,628.9339374999981,None,630.4501208399888,None,630.4436845999444,None,630.4436845999444,None,632.7503021999728,None,1,1,0.3540387999964878,632.7503021999728,None,,001,2021_Feb_17_1606,GuessTheSound,2020.2.10,59.95121169534463,
ManWhistle_D.wav,2,2,SIMILAR,,,,,0,137,137,137,,,,,,,,,,,,,,,,,,,,,,,,,,,,,,,,,,,,,,,,,,,,,,,,,,,,,,,,,,,,,,,,,,,,,,,,,,,,,,633.1331439999631,None,634.6499201400438,None,634.6491646999493,None,634.6491646999493,None,636.26702629996,None,2,1,0.42432719992939383,636.26702629996,None,,001,2021_Feb_17_1606,GuessTheSound,2020.2.10,59.95121169534463,
Growl_D.wav,2,2,SIMILAR,,,,,0,138,138,138,,,,,,,,,,,,,,,,,,,,,,,,,,,,,,,,,,,,,,,,,,,,,,,,,,,,,,,,,,,,,,,,,,,,,,,,,,,,,,636.7164798999438,None,638.2333689399529,None,638.2420224000234,None,638.2420224000234,None,640.5502684999956,None,2,1,0.5752655999967828,640.5502684999956,None,,001,2021_Feb_17_1606,GuessTheSound,2020.2.10,59.95121169534463,
Initial/Doubled/CarStart_A.wav,2,2,SIMILAR,,,,,0,139,139,139,,,,,,,,,,,,,,,,,,,,,,,,,,,,,,,,,,,,,,,,,,,,,,,,,,,,,,,,,,,,,,,,,,,,,,,,,,,,,,641.151733799954,None,642.7166941800388,None,642.7168554000091,None,642.7168554000091,None,645.0168098000577,None,2,1,0.6109478999860585,645.0168098000577,None,,001,2021_Feb_17_1606,GuessTheSound,2020.2.10,59.95121169534463,
Test/Foils/Donkey.wav,1,1,OLD,,,,,0,140,140,140,,,,,,,,,,,,,,,,,,,,,,,,,,,,,,,,,,,,,,,,,,,,,,,,,,,,,,,,,,,,,,,,,,,,,,,,,,,,,,645.6497284000507,None,647.1500976699754,None,647.1580625999486,None,647.1580625999486,None,649.466644500033,None,1,1,0.5995924000162631,649.466644500033,None,,001,2021_Feb_17_1606,GuessTheSound,2020.2.10,59.95121169534463,
Initial/NoRepeat/Droplet_B.wav,1,1,OLD,,,,,0,141,141,141,,,,,,,,,,,,,,,,,,,,,,,,,,,,,,,,,,,,,,,,,,,,,,,,,,,,,,,,,,,,,,,,,,,,,,,,,,,,,,650.0831825999776,None,651.5996675400529,None,651.5933484999696,None,651.5933484999696,None,653.7499457000522,None,1,1,0.8923406000249088,653.7499457000522,None,,001,2021_Feb_17_1606,GuessTheSound,2020.2.10,59.95121169534463,
Piano_C.wav,2,2,SIMILAR,,,,,0,142,142,142,,,,,,,,,,,,,,,,,,,,,,,,,,,,,,,,,,,,,,,,,,,,,,,,,,,,,,,,,,,,,,,,,,,,,,,,,,,,,,654.6663184999488,None,656.1830632400233,None,656.1889314999571,None,656.1889314999571,None,658.4998831000412,None,2,1,0.6340079000219703,658.4998831000412,None,,001,2021_Feb_17_1606,GuessTheSound,2020.2.10,59.95121169534463,
Test/Foils/Camera.wav,1,1,OLD,,,,,0,143,143,143,,,,,,,,,,,,,,,,,,,,,,,,,,,,,,,,,,,,,,,,,,,,,,,,,,,,,,,,,,,,,,,,,,,,,,,,,,,,,,659.1531705999514,None,660.6664106699754,None,660.6712538000429,None,660.6712538000429,None,661.6335394999478,None,1,1,1.5387030999409035,661.6335394999478,None,,001,2021_Feb_17_1606,GuessTheSound,2020.2.10,59.95121169534463,
