SoundFile,Correct,Correct2,Type,Trial,PracticeTrials.thisRepN,PracticeTrials.thisTrialN,PracticeTrials.thisN,PracticeTrials.thisIndex,trials.thisRepN,trials.thisTrialN,trials.thisN,trials.thisIndex,InstructionTxt.started,InstructionTxt.stopped,WelcomContinue.started,WelcomContinue.stopped,VolumeBeginTxt.started,VolumeBeginTxt.stopped,VolumeContinueKey.keys,VolumeContinueKey.rt,VolumeContinueKey.started,VolumeContinueKey.stopped,text.started,text.stopped,Music.started,Music.stopped,AdjustContinue.started,AdjustContinue.stopped,HeadphoneCheckBeing.started,HeadphoneCheckBeing.stopped,HeadphoneContinue.started,HeadphoneContinue.stopped,HeadphoneContinueKey.keys,HeadphoneContinueKey.rt,HeadphoneContinueKey.started,HeadphoneContinueKey.stopped,WelcomeTxt1.started,WelcomeTxt1.stopped,ContinueKey1.started,ContinueKey1.stopped,ContinueResp.keys,ContinueResp.rt,ContinueResp.started,ContinueResp.stopped,Welcome2Txt.started,Welcome2Txt.stopped,Wel2ContinueKey.keys,Wel2ContinueKey.rt,Wel2ContinueKey.started,Wel2ContinueKey.stopped,Continue2.started,Continue2.stopped,InstructionTxt2.started,InstructionTxt2.stopped,WelcomeContinue2.started,WelcomeContinue2.stopped,WelcomeContinueKey2.keys,WelcomeContinueKey2.rt,WelcomeContinueKey2.started,WelcomeContinueKey2.stopped,TrialNumber.started,TrialNumber.stopped,PracticeSound.started,PracticeSound.stopped,PracticeCross.started,PracticeCross.stopped,Practice_resp.keys,Practice_resp.corr,Practice_resp.rt,Practice_resp.started,Practice_resp.stopped,PracticeMssg.started,PracticeMssg.stopped,FeedbackCross.started,FeedbackCross.stopped,Continue.started,Continue.stopped,Options.started,Options.stopped,FeedbackMssg.started,FeedbackMssg.stopped,StartTxt.started,StartTxt.stopped,StartTast.keys,StartTast.rt,StartTast.started,StartTast.stopped,ContinueStart.started,ContinueStart.stopped,no_3.started,no_3.stopped,TargetSound.started,TargetSound.stopped,Cross.started,Cross.stopped,ItemNumber.started,ItemNumber.stopped,MSTQuestion.started,MSTQuestion.stopped,MSTResp.keys,MSTResp.corr,MSTResp.rt,MSTResp.started,MSTResp.stopped,participant,session,date,expName,psychopyVersion,frameRate,
,,,,,,,,,,,,,8.583856899989769,None,8.583856899989769,None,9.841915199998766,None,space,0.6369166001677513,9.841915199998766,None,,,,,,,,,,,,,,,,,,,,,,,,,,,,,,,,,,,,,,,,,,,,,,,,,,,,,,,,,,,,,,,,,,,,,,,,,,,,,,,,,,,,001,2021_Mar_01_1629,GuessTheSound,2020.2.10,59.98382834846699,
,,,,,,,,,,,,,,,,,,,,,,,10.577750700060278,None,10.573819599929266,None,10.577750700060278,None,11.215194799937308,None,11.215194799937308,None,space,0.4340162998996675,11.215194799937308,None,,,,,,,,,,,,,,,,,,,,,,,,,,,,,,,,,,,,,,,,,,,,,,,,,,,,,,,,,,,,,,,,,,,,,,001,2021_Mar_01_1629,GuessTheSound,2020.2.10,59.98382834846699,
,,,,,,,,,,,,,,,,,,,,,,,,,,,,,,,,,,,,,11.679574300069362,None,11.679574300069362,None,space,0.6669628999661654,11.679574300069362,None,,,,,,,,,,,,,,,,,,,,,,,,,,,,,,,,,,,,,,,,,,,,,,,,,,,,,,,,,,,,,,001,2021_Mar_01_1629,GuessTheSound,2020.2.10,59.98382834846699,
,,,,,,,,,,,,,,,,,,,,,,,,,,,,,,,,,,,,,,,,,,,,,12.381024200003594,None,space,0.6226077999453992,12.381024200003594,None,,,,,,,,,,,,,,,,,,,,,,,,,,,,,,,,,,,,,,,,,,,,,,,,,,,,,,,,001,2021_Mar_01_1629,GuessTheSound,2020.2.10,59.98382834846699,
,,,,,,,,,,,,,,,,,,,,,,,,,,,,,,,,,,,,,,,,,,,,,,,,,,,12.381024200003594,None,13.029832399915904,None,13.029832399915904,None,space,1.7362349000759423,13.029832399915904,None,,,,,,,,,,,,,,,,,,,,,,,,,,,,,,,,,,,,,,,,,,,,,,001,2021_Mar_01_1629,GuessTheSound,2020.2.10,59.98382834846699,
Practice/Seagull_A.wav,2,3,NEW,Practice,0,0,0,0,,,,,,,,,,,,,,,,,,,,,,,,,,,,,,,,,,,,,,,,,,,,,,,,,,,,,14.925520400051028,None,14.923042999836616,None,14.925520400051028,None,3,1,1.419357999926433,17.217424700036645,None,17.217424700036645,None,17.217424700036645,None,17.217424700036645,None,17.217424700036645,None,18.677159399958327,None,,,,,,,,,,,,,,,,,,,,,,,,,001,2021_Mar_01_1629,GuessTheSound,2020.2.10,59.98382834846699,
Practice/Skid_B.wav,2,3,NEW,Practice,0,1,1,1,,,,,,,,,,,,,,,,,,,,,,,,,,,,,,,,,,,,,,,,,,,,,,,,,,,,,19.69110730011016,None,19.690134699875486,None,19.69110730011016,None,3,1,0.5092474999837577,21.806994100101292,None,21.806994100101292,None,21.806994100101292,None,21.806994100101292,None,21.806994100101292,None,22.34331679996103,None,,,,,,,,,,,,,,,,,,,,,,,,,001,2021_Mar_01_1629,GuessTheSound,2020.2.10,59.98382834846699,
Practice/Seagull_A.wav,1,1,OLD,Practice,0,2,2,2,,,,,,,,,,,,,,,,,,,,,,,,,,,,,,,,,,,,,,,,,,,,,,,,,,,,,23.37261279998347,None,23.373044799966735,None,23.37261279998347,None,1,1,0.6255635998677462,25.66903609992005,None,25.66903609992005,None,25.66903609992005,None,25.66903609992005,None,25.66903609992005,None,26.32294930005446,None,,,,,,,,,,,,,,,,,,,,,,,,,001,2021_Mar_01_1629,GuessTheSound,2020.2.10,59.98382834846699,
Practice/Gargle_A.wav,2,3,NEW,Practice,0,3,3,3,,,,,,,,,,,,,,,,,,,,,,,,,,,,,,,,,,,,,,,,,,,,,,,,,,,,,27.35582820000127,None,27.339718999993053,None,27.35582820000127,None,3,1,0.335369799984619,29.649428900098428,None,29.649428900098428,None,29.649428900098428,None,29.649428900098428,None,29.649428900098428,None,30.008084899978712,None,,,,,,,,,,,,,,,,,,,,,,,,,001,2021_Mar_01_1629,GuessTheSound,2020.2.10,59.98382834846699,
Practice/Gargle_B.wav,2,2,SIMILAR,Practice,0,4,4,4,,,,,,,,,,,,,,,,,,,,,,,,,,,,,,,,,,,,,,,,,,,,,,,,,,,,,31.044088500086218,33.089973400114104,31.039873599959535,None,31.044088500086218,33.089973400114104,2,1,0.3354120999574661,33.14022130006924,None,33.14022130006924,None,33.14022130006924,None,33.14022130006924,None,33.14022130006924,None,33.49454149999656,None,,,,,,,,,,,,,,,,,,,,,,,,,001,2021_Mar_01_1629,GuessTheSound,2020.2.10,59.98382834846699,
,,,,,,,,,,,,,,,,,,,,,,,,,,,,,,,,,,,,,,,,,,,,,,,,,,,,,,,,,,,,,,,,,,,,,,,,,,,,,,,,,,34.50735879992135,None,space,0.8387261000461876,34.50735879992135,None,,,,,,,,,,,,,,,,,,,001,2021_Mar_01_1629,GuessTheSound,2020.2.10,59.98382834846699,
Initial/Repeat/ManWhistle.wav,2,3,NEW,B,,,,,0,0,0,0,,,,,,,,,,,,,,,,,,,,,,,,,,,,,,,,,,,,,,,,,,,,,,,,,,,,,,,,,,,,,,,,,,,,,,,,,,,,34.50735879992135,None,35.46952990000136,None,36.90634510009549,None,36.9076364999637,None,36.9076364999637,None,39.12691870005801,None,3,1,0.39690819988027215,39.12691870005801,None,,001,2021_Mar_01_1629,GuessTheSound,2020.2.10,59.98382834846699,
Siren_E.wav,2,3,NEW,B,,,,,0,1,1,1,,,,,,,,,,,,,,,,,,,,,,,,,,,,,,,,,,,,,,,,,,,,,,,,,,,,,,,,,,,,,,,,,,,,,,,,,,,,,,39.544252400053665,None,41.056583200092426,None,41.065545399906114,None,41.065545399906114,None,43.290708699962124,None,3,1,1.4402318000793457,43.290708699962124,None,,001,2021_Mar_01_1629,GuessTheSound,2020.2.10,59.98382834846699,
Footsteps_G.wav,2,3,NEW,B,,,,,0,2,2,2,,,,,,,,,,,,,,,,,,,,,,,,,,,,,,,,,,,,,,,,,,,,,,,,,,,,,,,,,,,,,,,,,,,,,,,,,,,,,,44.75874019996263,None,46.273066499945706,None,46.27969150012359,None,46.27969150012359,None,48.50744369998574,None,3,1,1.5950702000409365,48.50744369998574,None,,001,2021_Mar_01_1629,GuessTheSound,2020.2.10,59.98382834846699,
Initial/Doubled/Chicken_A.wav,2,3,NEW,B,,,,,0,3,3,3,,,,,,,,,,,,,,,,,,,,,,,,,,,,,,,,,,,,,,,,,,,,,,,,,,,,,,,,,,,,,,,,,,,,,,,,,,,,,,50.12849749997258,None,51.63965580004733,None,51.64688890008256,None,51.64688890008256,None,53.32378560001962,None,3,1,0.5317238999996334,53.32378560001962,None,,001,2021_Mar_01_1629,GuessTheSound,2020.2.10,59.98382834846699,
Phone_D.wav,2,3,NEW,B,,,,,0,4,4,4,,,,,,,,,,,,,,,,,,,,,,,,,,,,,,,,,,,,,,,,,,,,,,,,,,,,,,,,,,,,,,,,,,,,,,,,,,,,,,53.87623940012418,None,55.38974500002805,None,55.397521700011566,None,55.397521700011566,None,57.62367259990424,None,3,1,0.35434710001572967,57.62367259990424,None,,001,2021_Mar_01_1629,GuessTheSound,2020.2.10,59.98382834846699,
Initial/Repeat/Cup.wav,2,3,NEW,B,,,,,0,5,5,5,,,,,,,,,,,,,,,,,,,,,,,,,,,,,,,,,,,,,,,,,,,,,,,,,,,,,,,,,,,,,,,,,,,,,,,,,,,,,,58.008028500014916,None,59.53959150002338,None,59.53538400004618,None,59.53538400004618,None,60.87363260006532,None,3,1,0.3425521000754088,60.87363260006532,None,,001,2021_Mar_01_1629,GuessTheSound,2020.2.10,59.98382834846699,
Test/Foils/Bowlingpins.wav,2,3,NEW,B,,,,,0,6,6,6,,,,,,,,,,,,,,,,,,,,,,,,,,,,,,,,,,,,,,,,,,,,,,,,,,,,,,,,,,,,,,,,,,,,,,,,,,,,,,61.25346129992977,None,62.7726921999827,None,62.771790199913085,None,62.771790199913085,None,64.99027319997549,None,3,1,0.39968209993094206,64.99027319997549,None,,001,2021_Mar_01_1629,GuessTheSound,2020.2.10,59.98382834846699,
Bird_D.wav,2,3,NEW,B,,,,,0,7,7,7,,,,,,,,,,,,,,,,,,,,,,,,,,,,,,,,,,,,,,,,,,,,,,,,,,,,,,,,,,,,,,,,,,,,,,,,,,,,,,65.40761080011725,None,66.92285179996398,None,66.92898029997014,None,66.92898029997014,None,68.27373129990883,None,3,1,0.28397640003822744,68.27373129990883,None,,001,2021_Mar_01_1629,GuessTheSound,2020.2.10,59.98382834846699,
Initial/Doubled/HairDryer_A.wav,2,3,NEW,B,,,,,0,8,8,8,,,,,,,,,,,,,,,,,,,,,,,,,,,,,,,,,,,,,,,,,,,,,,,,,,,,,,,,,,,,,,,,,,,,,,,,,,,,,,68.57331699994393,None,70.08948860010133,None,70.08801020006649,None,70.08801020006649,None,72.3069351001177,None,3,1,0.3099541999399662,72.3069351001177,None,,001,2021_Mar_01_1629,GuessTheSound,2020.2.10,59.98382834846699,
Faucet_D.wav,2,3,NEW,B,,,,,0,9,9,9,,,,,,,,,,,,,,,,,,,,,,,,,,,,,,,,,,,,,,,,,,,,,,,,,,,,,,,,,,,,,,,,,,,,,,,,,,,,,,72.64675970003009,None,74.17254059989938,None,74.16687229997478,None,74.16687229997478,None,76.38987349998206,None,3,1,0.2912031998857856,76.38987349998206,None,,001,2021_Mar_01_1629,GuessTheSound,2020.2.10,59.98382834846699,
Siren_B.wav,2,2,SIMILAR,B,,,,,0,10,10,10,,,,,,,,,,,,,,,,,,,,,,,,,,,,,,,,,,,,,,,,,,,,,,,,,,,,,,,,,,,,,,,,,,,,,,,,,,,,,,76.70543590001762,None,78.22244210001082,None,78.21753509994596,None,78.21753509994596,None,80.44015879998915,None,2,1,1.082359499996528,80.44015879998915,None,,001,2021_Mar_01_1629,GuessTheSound,2020.2.10,59.98382834846699,
Laugh_C.wav,2,3,NEW,B,,,,,0,11,11,11,,,,,,,,,,,,,,,,,,,,,,,,,,,,,,,,,,,,,,,,,,,,,,,,,,,,,,,,,,,,,,,,,,,,,,,,,,,,,,81.54187309998088,None,83.07244589990006,None,83.07556969998404,None,83.07556969998404,None,85.29019899992272,None,3,1,0.7479111000429839,85.29019899992272,None,,001,2021_Mar_01_1629,GuessTheSound,2020.2.10,59.98382834846699,
Initial/Repeat/ManWhistle.wav,1,1,OLD,B,,,,,0,12,12,12,,,,,,,,,,,,,,,,,,,,,,,,,,,,,,,,,,,,,,,,,,,,,,,,,,,,,,,,,,,,,,,,,,,,,,,,,,,,,,86.05914309993386,None,87.57285370000173,None,87.57986690010875,None,87.57986690010875,None,89.80683190003037,None,1,1,0.24222350004129112,89.80683190003037,None,,001,2021_Mar_01_1629,GuessTheSound,2020.2.10,59.98382834846699,
Initial/NoRepeat/Cow.wav,2,3,NEW,B,,,,,0,13,13,13,,,,,,,,,,,,,,,,,,,,,,,,,,,,,,,,,,,,,,,,,,,,,,,,,,,,,,,,,,,,,,,,,,,,,,,,,,,,,,90.07586980005726,None,91.58919410009403,None,91.59413330000825,None,91.59413330000825,None,93.42348359990865,None,3,1,0.30457519995979965,93.42348359990865,None,,001,2021_Mar_01_1629,GuessTheSound,2020.2.10,59.98382834846699,
Cough_A.wav,2,3,NEW,B,,,,,0,14,14,14,,,,,,,,,,,,,,,,,,,,,,,,,,,,,,,,,,,,,,,,,,,,,,,,,,,,,,,,,,,,,,,,,,,,,,,,,,,,,,93.75849190005101,None,95.27276660010685,None,95.28015129989944,None,95.28015129989944,None,96.98993199993856,None,3,1,1.037890100153163,96.98993199993856,None,,001,2021_Mar_01_1629,GuessTheSound,2020.2.10,59.98382834846699,
Initial/Repeat/Phone_A.wav,2,2,SIMILAR,B,,,,,0,15,15,15,,,,,,,,,,,,,,,,,,,,,,,,,,,,,,,,,,,,,,,,,,,,,,,,,,,,,,,,,,,,,,,,,,,,,,,,,,,,,,98.06279160012491,None,99.57279819992837,None,99.57880040002055,None,99.57880040002055,None,101.80685449996963,None,2,1,0.5753418998792768,101.80685449996963,None,,001,2021_Mar_01_1629,GuessTheSound,2020.2.10,59.98382834846699,
Chime_B.wav,2,3,NEW,B,,,,,0,16,16,16,,,,,,,,,,,,,,,,,,,,,,,,,,,,,,,,,,,,,,,,,,,,,,,,,,,,,,,,,,,,,,,,,,,,,,,,,,,,,,102.40645950008184,None,103.95533470008523,None,103.9507301999256,None,103.9507301999256,None,106.1734817000106,None,3,1,0.6819677997846156,106.1734817000106,None,,001,2021_Mar_01_1629,GuessTheSound,2020.2.10,59.98382834846699,
Footsteps_F.wav,2,2,SIMILAR,B,,,,,0,17,17,17,,,,,,,,,,,,,,,,,,,,,,,,,,,,,,,,,,,,,,,,,,,,,,,,,,,,,,,,,,,,,,,,,,,,,,,,,,,,,,106.87606859998778,None,108.42223779989872,None,108.42052330006845,None,108.42052330006845,None,110.63976830011234,None,2,1,0.8420869000256062,110.63976830011234,None,,001,2021_Mar_01_1629,GuessTheSound,2020.2.10,59.98382834846699,
Initial/NoRepeat/Toilet_B.wav,2,3,NEW,B,,,,,0,18,18,18,,,,,,,,,,,,,,,,,,,,,,,,,,,,,,,,,,,,,,,,,,,,,,,,,,,,,,,,,,,,,,,,,,,,,,,,,,,,,,111.50607959995978,None,113.03879320009146,None,113.04482070007361,None,113.04482070007361,None,115.2731850000564,None,3,1,0.4653225999791175,115.2731850000564,None,,001,2021_Mar_01_1629,GuessTheSound,2020.2.10,59.98382834846699,
Piano_D.wav,2,3,NEW,B,,,,,0,19,19,19,,,,,,,,,,,,,,,,,,,,,,,,,,,,,,,,,,,,,,,,,,,,,,,,,,,,,,,,,,,,,,,,,,,,,,,,,,,,,,115.75545749999583,None,117.28857269992587,None,117.28968739998527,None,117.28968739998527,None,119.50654700002633,None,3,1,0.4461493000853807,119.50654700002633,None,,001,2021_Mar_01_1629,GuessTheSound,2020.2.10,59.98382834846699,
Initial/Repeat/Cup.wav,1,1,OLD,B,,,,,0,20,20,20,,,,,,,,,,,,,,,,,,,,,,,,,,,,,,,,,,,,,,,,,,,,,,,,,,,,,,,,,,,,,,,,,,,,,,,,,,,,,,119.97248369990848,None,121.47254319998902,None,121.48394319997169,None,121.48394319997169,None,122.82306719990447,None,3,0,0.3662052999716252,122.82306719990447,None,,001,2021_Mar_01_1629,GuessTheSound,2020.2.10,59.98382834846699,
Initial/Doubled/HairDryer_A.wav,1,1,OLD,B,,,,,0,21,21,21,,,,,,,,,,,,,,,,,,,,,,,,,,,,,,,,,,,,,,,,,,,,,,,,,,,,,,,,,,,,,,,,,,,,,,,,,,,,,,123.20672810007818,None,124.7225200000452,None,124.73015299998224,None,124.73015299998224,None,126.95755059993826,None,1,1,0.29110599984414876,126.95755059993826,None,,001,2021_Mar_01_1629,GuessTheSound,2020.2.10,59.98382834846699,
Initial/NoRepeat/Thunder_A.wav,2,3,NEW,B,,,,,0,22,22,22,,,,,,,,,,,,,,,,,,,,,,,,,,,,,,,,,,,,,,,,,,,,,,,,,,,,,,,,,,,,,,,,,,,,,,,,,,,,,,127.27516370010562,None,128.8388128999155,None,128.8370930000674,None,128.8370930000674,None,131.05650530010462,None,3,1,0.4241770999506116,131.05650530010462,None,,001,2021_Mar_01_1629,GuessTheSound,2020.2.10,59.98382834846699,
Initial/Doubled/Chicken_A.wav,1,1,OLD,B,,,,,0,23,23,23,,,,,,,,,,,,,,,,,,,,,,,,,,,,,,,,,,,,,,,,,,,,,,,,,,,,,,,,,,,,,,,,,,,,,,,,,,,,,,131.50874760001898,None,133.02187520007138,None,133.02740280004218,None,133.02740280004218,None,134.706188299926,None,1,1,0.4236934999935329,134.706188299926,None,,001,2021_Mar_01_1629,GuessTheSound,2020.2.10,59.98382834846699,
Whistle_A.wav,2,3,NEW,B,,,,,0,24,24,24,,,,,,,,,,,,,,,,,,,,,,,,,,,,,,,,,,,,,,,,,,,,,,,,,,,,,,,,,,,,,,,,,,,,,,,,,,,,,,135.15734930010512,None,136.70518689991442,None,136.71001469995826,None,136.71001469995826,None,138.20626010000706,None,3,1,0.5977629998233169,138.20626010000706,None,,001,2021_Mar_01_1629,GuessTheSound,2020.2.10,59.98382834846699,
Chick_A.wav,2,2,SIMILAR,B,,,,,0,25,25,25,,,,,,,,,,,,,,,,,,,,,,,,,,,,,,,,,,,,,,,,,,,,,,,,,,,,,,,,,,,,,,,,,,,,,,,,,,,,,,138.8254442999605,None,140.3718115998665,None,140.37574809999205,None,140.37574809999205,None,142.08942200010642,None,2,1,1.044776199851185,142.08942200010642,None,,001,2021_Mar_01_1629,GuessTheSound,2020.2.10,59.98382834846699,
Dog_E.wav,2,3,NEW,B,,,,,0,26,26,26,,,,,,,,,,,,,,,,,,,,,,,,,,,,,,,,,,,,,,,,,,,,,,,,,,,,,,,,,,,,,,,,,,,,,,,,,,,,,,143.15568020008504,None,144.70507269995286,None,144.69811669993214,None,144.69811669993214,None,146.45634300005622,None,3,1,0.6094209998846054,146.45634300005622,None,,001,2021_Mar_01_1629,GuessTheSound,2020.2.10,59.98382834846699,
Test/Foils/Bowlingpins.wav,1,1,OLD,B,,,,,0,27,27,27,,,,,,,,,,,,,,,,,,,,,,,,,,,,,,,,,,,,,,,,,,,,,,,,,,,,,,,,,,,,,,,,,,,,,,,,,,,,,,147.0932005001232,None,148.60526140008588,None,148.61486249999143,None,148.61486249999143,None,150.8393739000894,None,1,1,0.4122957999352366,150.8393739000894,None,,001,2021_Mar_01_1629,GuessTheSound,2020.2.10,59.98382834846699,
Initial/NoRepeat/Fireworks.wav,2,3,NEW,B,,,,,0,28,28,28,,,,,,,,,,,,,,,,,,,,,,,,,,,,,,,,,,,,,,,,,,,,,,,,,,,,,,,,,,,,,,,,,,,,,,,,,,,,,,151.27603380009532,None,152.83832849995233,None,152.84637619997375,None,152.84637619997375,None,155.07281840010546,None,3,1,0.4590624999254942,155.07281840010546,None,,001,2021_Mar_01_1629,GuessTheSound,2020.2.10,59.98382834846699,
Initial/NoRepeat/Cow.wav,1,1,OLD,B,,,,,0,29,29,29,,,,,,,,,,,,,,,,,,,,,,,,,,,,,,,,,,,,,,,,,,,,,,,,,,,,,,,,,,,,,,,,,,,,,,,,,,,,,,155.55930770002306,None,157.07177969997284,None,157.08001539995894,None,157.08001539995894,None,158.922613899922,None,3,0,0.40301640005782247,158.922613899922,None,,001,2021_Mar_01_1629,GuessTheSound,2020.2.10,59.98382834846699,
Snore_D.wav,2,3,NEW,B,,,,,0,30,30,30,,,,,,,,,,,,,,,,,,,,,,,,,,,,,,,,,,,,,,,,,,,,,,,,,,,,,,,,,,,,,,,,,,,,,,,,,,,,,,159.36160760000348,None,160.9213674998842,None,160.92994969990104,None,160.92994969990104,None,163.1562536000274,None,3,1,0.603247300023213,163.1562536000274,None,,001,2021_Mar_01_1629,GuessTheSound,2020.2.10,59.98382834846699,
Faucet_C.wav,2,2,SIMILAR,B,,,,,0,31,31,31,,,,,,,,,,,,,,,,,,,,,,,,,,,,,,,,,,,,,,,,,,,,,,,,,,,,,,,,,,,,,,,,,,,,,,,,,,,,,,163.79533439991064,None,165.35337619986385,None,165.34560570004396,None,165.34560570004396,None,167.57125320006162,None,1,0,0.6607987000606954,167.57125320006162,None,,001,2021_Mar_01_1629,GuessTheSound,2020.2.10,59.98382834846699,
Chime_A.wav,2,2,SIMILAR,B,,,,,0,32,32,32,,,,,,,,,,,,,,,,,,,,,,,,,,,,,,,,,,,,,,,,,,,,,,,,,,,,,,,,,,,,,,,,,,,,,,,,,,,,,,168.25386400008574,None,169.80388339995406,None,169.80067729996517,None,169.80067729996517,None,172.02273400011472,None,2,1,0.6186561000067741,172.02273400011472,None,,001,2021_Mar_01_1629,GuessTheSound,2020.2.10,59.98382834846699,
Cough_E.wav,2,2,SIMILAR,B,,,,,0,33,33,33,,,,,,,,,,,,,,,,,,,,,,,,,,,,,,,,,,,,,,,,,,,,,,,,,,,,,,,,,,,,,,,,,,,,,,,,,,,,,,172.67447629990056,None,174.22166019997096,None,174.22153889993206,None,174.22153889993206,None,175.92254539998248,None,3,0,0.8207630000542849,175.92254539998248,None,,001,2021_Mar_01_1629,GuessTheSound,2020.2.10,59.98382834846699,
Test/Foils/Heartbeat.wav,2,3,NEW,B,,,,,0,34,34,34,,,,,,,,,,,,,,,,,,,,,,,,,,,,,,,,,,,,,,,,,,,,,,,,,,,,,,,,,,,,,,,,,,,,,,,,,,,,,,176.77510019997135,None,178.32170919997154,None,178.3263681998942,None,178.3263681998942,None,180.53903679992072,None,3,1,0.3336089001968503,180.53903679992072,None,,001,2021_Mar_01_1629,GuessTheSound,2020.2.10,59.98382834846699,
Laugh_F.wav,2,2,SIMILAR,B,,,,,0,35,35,35,,,,,,,,,,,,,,,,,,,,,,,,,,,,,,,,,,,,,,,,,,,,,,,,,,,,,,,,,,,,,,,,,,,,,,,,,,,,,,180.89163210010156,None,182.42134619988502,None,182.4235610999167,None,182.4235610999167,None,184.63897549989633,None,1,0,1.030854499898851,184.63897549989633,None,,001,2021_Mar_01_1629,GuessTheSound,2020.2.10,59.98382834846699,
Initial/Repeat/Cello.wav,2,3,NEW,B,,,,,0,36,36,36,,,,,,,,,,,,,,,,,,,,,,,,,,,,,,,,,,,,,,,,,,,,,,,,,,,,,,,,,,,,,,,,,,,,,,,,,,,,,,185.69142609997652,None,187.237883299985,None,187.2363179998938,None,187.2363179998938,None,189.45568210002966,None,3,1,0.4675153000280261,189.45568210002966,None,,001,2021_Mar_01_1629,GuessTheSound,2020.2.10,59.98382834846699,
Piano_D.wav,1,1,OLD,B,,,,,0,37,37,37,,,,,,,,,,,,,,,,,,,,,,,,,,,,,,,,,,,,,,,,,,,,,,,,,,,,,,,,,,,,,,,,,,,,,,,,,,,,,,189.94422720000148,None,191.45473120009993,None,191.46393040008843,None,191.46393040008843,None,193.68890139996074,None,1,1,0.3490379999857396,193.68890139996074,None,,001,2021_Mar_01_1629,GuessTheSound,2020.2.10,59.98382834846699,
Clap_B.wav,2,3,NEW,B,,,,,0,38,38,38,,,,,,,,,,,,,,,,,,,,,,,,,,,,,,,,,,,,,,,,,,,,,,,,,,,,,,,,,,,,,,,,,,,,,,,,,,,,,,194.061231700005,None,195.6048074000748,None,195.6127967000939,None,195.6127967000939,None,197.83886860008352,None,3,1,0.3855705999303609,197.83886860008352,None,,001,2021_Mar_01_1629,GuessTheSound,2020.2.10,59.98382834846699,
Initial/Repeat/Bagpipe.wav,2,3,NEW,B,,,,,0,39,39,39,,,,,,,,,,,,,,,,,,,,,,,,,,,,,,,,,,,,,,,,,,,,,,,,,,,,,,,,,,,,,,,,,,,,,,,,,,,,,,198.23964900011197,None,199.78777720003856,None,199.79555059992708,None,199.79555059992708,None,202.02229980006814,None,3,1,0.3411441999487579,202.02229980006814,None,,001,2021_Mar_01_1629,GuessTheSound,2020.2.10,59.98382834846699,
Growl_G.wav,2,3,NEW,B,,,,,0,40,40,40,,,,,,,,,,,,,,,,,,,,,,,,,,,,,,,,,,,,,,,,,,,,,,,,,,,,,,,,,,,,,,,,,,,,,,,,,,,,,,202.3902368999552,None,203.92110020010733,None,203.92266859998927,None,203.92266859998927,None,206.1388240000233,None,3,1,0.462171999970451,206.1388240000233,None,,001,2021_Mar_01_1629,GuessTheSound,2020.2.10,59.98382834846699,
Initial/Repeat/Airplane_B.wav,2,3,NEW,B,,,,,0,41,41,41,,,,,,,,,,,,,,,,,,,,,,,,,,,,,,,,,,,,,,,,,,,,,,,,,,,,,,,,,,,,,,,,,,,,,,,,,,,,,,206.62260539992712,None,208.17130090009888,None,208.17524840007536,None,208.17524840007536,None,210.38873689994216,None,3,1,0.3930295000318438,210.38873689994216,None,,001,2021_Mar_01_1629,GuessTheSound,2020.2.10,59.98382834846699,
Initial/NoRepeat/Toilet_B.wav,1,1,OLD,B,,,,,0,42,42,42,,,,,,,,,,,,,,,,,,,,,,,,,,,,,,,,,,,,,,,,,,,,,,,,,,,,,,,,,,,,,,,,,,,,,,,,,,,,,,210.810985899996,None,212.32163990007248,None,212.3301246999763,None,212.3301246999763,None,214.555550100049,None,3,0,0.3969912000466138,214.555550100049,None,,001,2021_Mar_01_1629,GuessTheSound,2020.2.10,59.98382834846699,
Initial/NoRepeat/Hammer_A.wav,2,3,NEW,B,,,,,0,43,43,43,,,,,,,,,,,,,,,,,,,,,,,,,,,,,,,,,,,,,,,,,,,,,,,,,,,,,,,,,,,,,,,,,,,,,,,,,,,,,,214.97507099993527,None,216.53768640002235,None,216.5407678000629,None,216.5407678000629,None,218.7555889999494,None,3,1,0.4431139000225812,218.7555889999494,None,,001,2021_Mar_01_1629,GuessTheSound,2020.2.10,59.98382834846699,
Goat_D.wav,2,3,NEW,B,,,,,0,44,44,44,,,,,,,,,,,,,,,,,,,,,,,,,,,,,,,,,,,,,,,,,,,,,,,,,,,,,,,,,,,,,,,,,,,,,,,,,,,,,,219.22280290001072,None,220.78758710008114,None,220.783507599961,None,220.783507599961,None,222.505488099996,None,3,1,0.32074029999785125,222.505488099996,None,,001,2021_Mar_01_1629,GuessTheSound,2020.2.10,59.98382834846699,
Coin_D.wav,2,3,NEW,B,,,,,0,45,45,45,,,,,,,,,,,,,,,,,,,,,,,,,,,,,,,,,,,,,,,,,,,,,,,,,,,,,,,,,,,,,,,,,,,,,,,,,,,,,,222.85778070008382,None,224.40450939994773,None,224.41386569989845,None,224.41386569989845,None,226.58859369996935,None,3,1,0.4090712999459356,226.58859369996935,None,,001,2021_Mar_01_1629,GuessTheSound,2020.2.10,59.98382834846699,
Initial/NoRepeat/Fireworks.wav,1,1,OLD,B,,,,,0,46,46,46,,,,,,,,,,,,,,,,,,,,,,,,,,,,,,,,,,,,,,,,,,,,,,,,,,,,,,,,,,,,,,,,,,,,,,,,,,,,,,227.02215440012515,None,228.53820560006426,None,228.5329253000673,None,228.5329253000673,None,230.75552799995057,None,1,1,0.29934269981458783,230.75552799995057,None,,001,2021_Mar_01_1629,GuessTheSound,2020.2.10,59.98382834846699,
Test/Foils/Donkey.wav,2,3,NEW,B,,,,,0,47,47,47,,,,,,,,,,,,,,,,,,,,,,,,,,,,,,,,,,,,,,,,,,,,,,,,,,,,,,,,,,,,,,,,,,,,,,,,,,,,,,231.073004799895,None,232.62094900005033,None,232.62716779997572,None,232.62716779997572,None,234.85515139997005,None,3,1,0.38810819992795587,234.85515139997005,None,,001,2021_Mar_01_1629,GuessTheSound,2020.2.10,59.98382834846699,
Initial/Repeat/Howl.wav,2,3,NEW,B,,,,,0,48,48,48,,,,,,,,,,,,,,,,,,,,,,,,,,,,,,,,,,,,,,,,,,,,,,,,,,,,,,,,,,,,,,,,,,,,,,,,,,,,,,235.27565019996837,None,236.82101380003152,None,236.82761329994537,None,236.82761329994537,None,239.0554122000467,None,3,1,0.6371866001281887,239.0554122000467,None,,001,2021_Mar_01_1629,GuessTheSound,2020.2.10,59.98382834846699,
Initial/NoRepeat/Thunder_A.wav,1,1,OLD,B,,,,,0,49,49,49,,,,,,,,,,,,,,,,,,,,,,,,,,,,,,,,,,,,,,,,,,,,,,,,,,,,,,,,,,,,,,,,,,,,,,,,,,,,,,239.72096839989536,None,241.2373462998774,None,241.23320490005426,None,241.23320490005426,None,243.45493020000868,None,1,1,0.4276668999809772,243.45493020000868,None,,001,2021_Mar_01_1629,GuessTheSound,2020.2.10,59.98382834846699,
Whistle_C.wav,2,2,SIMILAR,B,,,,,0,50,50,50,,,,,,,,,,,,,,,,,,,,,,,,,,,,,,,,,,,,,,,,,,,,,,,,,,,,,,,,,,,,,,,,,,,,,,,,,,,,,,243.90540009993128,None,245.45423679999075,None,245.44842700008303,None,245.44842700008303,None,247.23838880006224,None,3,0,1.384207900147885,247.23838880006224,None,,001,2021_Mar_01_1629,GuessTheSound,2020.2.10,59.98382834846699,
Initial/NoRepeat/Helicopter_A.wav,2,3,NEW,B,,,,,0,51,51,51,,,,,,,,,,,,,,,,,,,,,,,,,,,,,,,,,,,,,,,,,,,,,,,,,,,,,,,,,,,,,,,,,,,,,,,,,,,,,,248.63720709993504,None,250.20376850001048,None,250.20445890002884,None,250.20445890002884,None,252.4216243000701,None,3,1,0.3890152000822127,252.4216243000701,None,,001,2021_Mar_01_1629,GuessTheSound,2020.2.10,59.98382834846699,
Dog_F.wav,2,2,SIMILAR,B,,,,,0,52,52,52,,,,,,,,,,,,,,,,,,,,,,,,,,,,,,,,,,,,,,,,,,,,,,,,,,,,,,,,,,,,,,,,,,,,,,,,,,,,,,252.83698799996637,None,254.37079789994752,None,254.38213380007073,None,254.38213380007073,None,256.0550822999794,None,2,1,1.8792396001517773,256.0550822999794,None,,001,2021_Mar_01_1629,GuessTheSound,2020.2.10,59.98382834846699,
Test/Foils/Horse.wav,2,3,NEW,B,,,,,0,53,53,53,,,,,,,,,,,,,,,,,,,,,,,,,,,,,,,,,,,,,,,,,,,,,,,,,,,,,,,,,,,,,,,,,,,,,,,,,,,,,,257.9552368998993,None,259.52081809998487,None,259.51994900009595,None,259.51994900009595,None,261.7218001000583,None,3,1,0.2423555999994278,261.7218001000583,None,,001,2021_Mar_01_1629,GuessTheSound,2020.2.10,59.98382834846699,
Initial/Doubled/Chomp_A.wav,2,3,NEW,B,,,,,0,54,54,54,,,,,,,,,,,,,,,,,,,,,,,,,,,,,,,,,,,,,,,,,,,,,,,,,,,,,,,,,,,,,,,,,,,,,,,,,,,,,,261.98936069989577,None,263.5537402000278,None,263.5616013999097,None,263.5616013999097,None,265.7879490000196,None,3,1,0.7583645998965949,265.7879490000196,None,,001,2021_Mar_01_1629,GuessTheSound,2020.2.10,59.98382834846699,
Test/Foils/Heartbeat.wav,1,1,OLD,B,,,,,0,55,55,55,,,,,,,,,,,,,,,,,,,,,,,,,,,,,,,,,,,,,,,,,,,,,,,,,,,,,,,,,,,,,,,,,,,,,,,,,,,,,,266.5709699001163,None,268.07067589994983,None,268.0799410000909,None,268.0799410000909,None,270.30513520003296,None,1,1,0.25051929987967014,270.30513520003296,None,,001,2021_Mar_01_1629,GuessTheSound,2020.2.10,59.98382834846699,
Clap_C.wav,2,2,SIMILAR,B,,,,,0,56,56,56,,,,,,,,,,,,,,,,,,,,,,,,,,,,,,,,,,,,,,,,,,,,,,,,,,,,,,,,,,,,,,,,,,,,,,,,,,,,,,270.5755104001146,None,272.1205880999798,None,272.1174192999024,None,272.1174192999024,None,274.33823719993234,None,2,1,0.874201999977231,274.33823719993234,None,,001,2021_Mar_01_1629,GuessTheSound,2020.2.10,59.98382834846699,
Crow_B.wav,2,3,NEW,B,,,,,0,57,57,57,,,,,,,,,,,,,,,,,,,,,,,,,,,,,,,,,,,,,,,,,,,,,,,,,,,,,,,,,,,,,,,,,,,,,,,,,,,,,,275.23911399999633,None,276.78713549992534,None,276.79438899992965,None,276.79438899992965,None,278.87143999990076,None,3,1,0.5339682998601347,278.87143999990076,None,,001,2021_Mar_01_1629,GuessTheSound,2020.2.10,59.98382834846699,
Growl_H.wav,2,2,SIMILAR,B,,,,,0,58,58,58,,,,,,,,,,,,,,,,,,,,,,,,,,,,,,,,,,,,,,,,,,,,,,,,,,,,,,,,,,,,,,,,,,,,,,,,,,,,,,279.42050600005314,None,280.9537190999137,None,280.9517592000775,None,280.9517592000775,None,283.1714292000979,None,2,1,0.8282577998470515,283.1714292000979,None,,001,2021_Mar_01_1629,GuessTheSound,2020.2.10,59.98382834846699,
Initial/Repeat/Printer.wav,2,3,NEW,B,,,,,0,59,59,59,,,,,,,,,,,,,,,,,,,,,,,,,,,,,,,,,,,,,,,,,,,,,,,,,,,,,,,,,,,,,,,,,,,,,,,,,,,,,,284.0210573000368,None,285.55386220004874,None,285.5612890000921,None,285.5612890000921,None,287.7864486000035,None,3,1,0.7492828001268208,287.7864486000035,None,,001,2021_Mar_01_1629,GuessTheSound,2020.2.10,59.98382834846699,
Initial/Repeat/Cello.wav,1,1,OLD,B,,,,,0,60,60,60,,,,,,,,,,,,,,,,,,,,,,,,,,,,,,,,,,,,,,,,,,,,,,,,,,,,,,,,,,,,,,,,,,,,,,,,,,,,,,288.55270110000856,None,290.0692833000328,None,290.06080289999954,None,290.06080289999954,None,292.2878996001091,None,3,0,1.7537430999800563,292.2878996001091,None,,001,2021_Mar_01_1629,GuessTheSound,2020.2.10,59.98382834846699,
Snore_E.wav,2,2,SIMILAR,B,,,,,0,61,61,61,,,,,,,,,,,,,,,,,,,,,,,,,,,,,,,,,,,,,,,,,,,,,,,,,,,,,,,,,,,,,,,,,,,,,,,,,,,,,,294.07548850006424,None,295.58713579990433,None,295.5967872000765,None,295.5967872000765,None,297.8213124999311,None,3,0,1.748777600005269,297.8213124999311,None,,001,2021_Mar_01_1629,GuessTheSound,2020.2.10,59.98382834846699,
CarStart_F.wav,2,3,NEW,B,,,,,0,62,62,62,,,,,,,,,,,,,,,,,,,,,,,,,,,,,,,,,,,,,,,,,,,,,,,,,,,,,,,,,,,,,,,,,,,,,,,,,,,,,,299.58797949994914,None,301.10352919993454,None,301.1129892000463,None,301.1129892000463,None,303.33788920007646,None,3,1,0.8934386000037193,303.33788920007646,None,,001,2021_Mar_01_1629,GuessTheSound,2020.2.10,59.98382834846699,
Goat_C.wav,2,2,SIMILAR,B,,,,,0,63,63,63,,,,,,,,,,,,,,,,,,,,,,,,,,,,,,,,,,,,,,,,,,,,,,,,,,,,,,,,,,,,,,,,,,,,,,,,,,,,,,304.2558313999325,None,305.81986329997886,None,305.8148159000557,None,305.8148159000557,None,307.637756699929,None,3,0,0.3029779000207782,307.637756699929,None,,001,2021_Mar_01_1629,GuessTheSound,2020.2.10,59.98382834846699,
Coin_E.wav,2,2,SIMILAR,B,,,,,0,64,64,64,,,,,,,,,,,,,,,,,,,,,,,,,,,,,,,,,,,,,,,,,,,,,,,,,,,,,,,,,,,,,,,,,,,,,,,,,,,,,,307.97211150010116,None,309.5200021000812,None,309.52771950000897,None,309.52771950000897,None,311.554637900088,None,2,1,0.7064335001632571,311.554637900088,None,,001,2021_Mar_01_1629,GuessTheSound,2020.2.10,59.98382834846699,
Initial/Repeat/Howl.wav,1,1,OLD,B,,,,,0,65,65,65,,,,,,,,,,,,,,,,,,,,,,,,,,,,,,,,,,,,,,,,,,,,,,,,,,,,,,,,,,,,,,,,,,,,,,,,,,,,,,312.28781059989706,None,313.8034751000348,None,313.79784819995984,None,313.79784819995984,None,316.0209415999707,None,3,0,0.38981990003958344,316.0209415999707,None,,001,2021_Mar_01_1629,GuessTheSound,2020.2.10,59.98382834846699,
Initial/Repeat/Airplane_B.wav,1,1,OLD,B,,,,,0,66,66,66,,,,,,,,,,,,,,,,,,,,,,,,,,,,,,,,,,,,,,,,,,,,,,,,,,,,,,,,,,,,,,,,,,,,,,,,,,,,,,316.43664170010015,None,317.95331159997727,None,317.9466901998967,None,317.9466901998967,None,320.1709803000558,None,3,0,0.2538012000732124,320.1709803000558,None,,001,2021_Mar_01_1629,GuessTheSound,2020.2.10,59.98382834846699,
Initial/NoRepeat/Mosquito_B.wav,1,1,OLD,B,,,,,0,67,67,67,,,,,,,,,,,,,,,,,,,,,,,,,,,,,,,,,,,,,,,,,,,,,,,,,,,,,,,,,,,,,,,,,,,,,,,,,,,,,,320.4554602999706,None,322.00332830001133,None,322.0134364999831,None,322.0134364999831,None,324.15448609995656,None,3,0,0.08779530017636716,324.15448609995656,None,,001,2021_Mar_01_1629,GuessTheSound,2020.2.10,59.98382834846699,
Initial/NoRepeat/Droplet_B.wav,2,3,NEW,B,,,,,0,68,68,68,,,,,,,,,,,,,,,,,,,,,,,,,,,,,,,,,,,,,,,,,,,,,,,,,,,,,,,,,,,,,,,,,,,,,,,,,,,,,,324.27196469996125,None,325.81972880002576,None,325.8260981000494,None,325.8260981000494,None,327.98759809997864,None,3,1,0.3359680001158267,327.98759809997864,None,,001,2021_Mar_01_1629,GuessTheSound,2020.2.10,59.98382834846699,
Test/Foils/Donkey.wav,1,1,OLD,B,,,,,0,69,69,69,,,,,,,,,,,,,,,,,,,,,,,,,,,,,,,,,,,,,,,,,,,,,,,,,,,,,,,,,,,,,,,,,,,,,,,,,,,,,,328.35856839991175,None,329.8698484999826,None,329.87670179991983,None,329.87670179991983,None,332.10407070000656,None,1,1,0.11925569991581142,332.10407070000656,None,,001,2021_Mar_01_1629,GuessTheSound,2020.2.10,59.98382834846699,
Test/Lures/Guitar_B.wav,2,3,NEW,B,,,,,0,70,70,70,,,,,,,,,,,,,,,,,,,,,,,,,,,,,,,,,,,,,,,,,,,,,,,,,,,,,,,,,,,,,,,,,,,,,,,,,,,,,,332.2536003999412,None,333.80322129991833,None,333.7974014999345,None,333.7974014999345,None,336.02076489990577,None,3,1,0.3029575999826193,336.02076489990577,None,,001,2021_Mar_01_1629,GuessTheSound,2020.2.10,59.98382834846699,
Initial/Repeat/Bagpipe.wav,1,1,OLD,B,,,,,0,71,71,71,,,,,,,,,,,,,,,,,,,,,,,,,,,,,,,,,,,,,,,,,,,,,,,,,,,,,,,,,,,,,,,,,,,,,,,,,,,,,,336.3561633999925,None,337.87002900007644,None,337.8821493999567,None,337.8821493999567,None,340.10414079995826,None,1,1,0.3959282001014799,340.10414079995826,None,,001,2021_Mar_01_1629,GuessTheSound,2020.2.10,59.98382834846699,
Initial/NoRepeat/Hammer_A.wav,2,3,NEW,B,,,,,0,72,72,72,,,,,,,,,,,,,,,,,,,,,,,,,,,,,,,,,,,,,,,,,,,,,,,,,,,,,,,,,,,,,,,,,,,,,,,,,,,,,,340.52017399994656,None,342.0365220000501,None,342.0297310000751,None,342.0297310000751,None,344.2541364999488,None,3,1,0.3627245998941362,344.2541364999488,None,,001,2021_Mar_01_1629,GuessTheSound,2020.2.10,59.98382834846699,
Initial/NoRepeat/Helicopter_A.wav,1,1,OLD,B,,,,,0,73,73,73,,,,,,,,,,,,,,,,,,,,,,,,,,,,,,,,,,,,,,,,,,,,,,,,,,,,,,,,,,,,,,,,,,,,,,,,,,,,,,344.63698279997334,None,346.1532416000962,None,346.1487809000537,None,346.1487809000537,None,348.3690212001093,None,3,0,0.7751738000661135,348.3690212001093,None,,001,2021_Mar_01_1629,GuessTheSound,2020.2.10,59.98382834846699,
Test/Foils/Camera.wav,2,3,NEW,B,,,,,0,74,74,74,,,,,,,,,,,,,,,,,,,,,,,,,,,,,,,,,,,,,,,,,,,,,,,,,,,,,,,,,,,,,,,,,,,,,,,,,,,,,,349.16979760001414,None,350.7187062999233,None,350.71740989992395,None,350.71740989992395,None,351.68661319999956,None,3,1,0.4700869999360293,351.68661319999956,None,,001,2021_Mar_01_1629,GuessTheSound,2020.2.10,59.98382834846699,
Test/Foils/Steam.wav,2,3,NEW,B,,,,,0,75,75,75,,,,,,,,,,,,,,,,,,,,,,,,,,,,,,,,,,,,,,,,,,,,,,,,,,,,,,,,,,,,,,,,,,,,,,,,,,,,,,352.19068369991146,None,353.75308679989536,None,353.75657900003716,None,353.75657900003716,None,355.97054410004057,None,3,1,0.05491459998302162,355.97054410004057,None,,001,2021_Mar_01_1629,GuessTheSound,2020.2.10,59.98382834846699,
Test/Foils/Horse.wav,1,1,OLD,B,,,,,0,76,76,76,,,,,,,,,,,,,,,,,,,,,,,,,,,,,,,,,,,,,,,,,,,,,,,,,,,,,,,,,,,,,,,,,,,,,,,,,,,,,,356.05290969996713,None,357.56974599994714,None,357.5631341000553,None,357.5631341000553,None,359.7541958000511,None,1,1,0.3102824999950826,359.7541958000511,None,,001,2021_Mar_01_1629,GuessTheSound,2020.2.10,59.98382834846699,
Elephant_C.wav,2,3,NEW,B,,,,,0,77,77,77,,,,,,,,,,,,,,,,,,,,,,,,,,,,,,,,,,,,,,,,,,,,,,,,,,,,,,,,,,,,,,,,,,,,,,,,,,,,,,360.0881217001006,None,361.63648280005435,None,361.64464580011554,None,361.64464580011554,None,363.8706527000759,None,3,1,0.5105961998924613,363.8706527000759,None,,001,2021_Mar_01_1629,GuessTheSound,2020.2.10,59.98382834846699,
Initial/Repeat/Printer.wav,1,1,OLD,B,,,,,0,78,78,78,,,,,,,,,,,,,,,,,,,,,,,,,,,,,,,,,,,,,,,,,,,,,,,,,,,,,,,,,,,,,,,,,,,,,,,,,,,,,,364.40427970001474,None,365.9197504000971,None,365.9285639000591,None,365.9285639000591,None,368.15398519998416,None,1,1,0.30097600002773106,368.15398519998416,None,,001,2021_Mar_01_1629,GuessTheSound,2020.2.10,59.98382834846699,
Crow_A.wav,2,2,SIMILAR,B,,,,,0,79,79,79,,,,,,,,,,,,,,,,,,,,,,,,,,,,,,,,,,,,,,,,,,,,,,,,,,,,,,,,,,,,,,,,,,,,,,,,,,,,,,368.4728681000415,None,370.01943469995166,None,370.0152263001073,None,370.0152263001073,None,371.8539716999512,None,2,1,0.45058419997803867,371.8539716999512,None,,001,2021_Mar_01_1629,GuessTheSound,2020.2.10,59.98382834846699,
Initial/Doubled/Bubbles_A.wav,2,3,NEW,B,,,,,0,80,80,80,,,,,,,,,,,,,,,,,,,,,,,,,,,,,,,,,,,,,,,,,,,,,,,,,,,,,,,,,,,,,,,,,,,,,,,,,,,,,,372.32441259990446,None,373.86924799990373,None,373.877719799988,None,373.877719799988,None,376.1037568000611,None,3,1,0.4006670000962913,376.1037568000611,None,,001,2021_Mar_01_1629,GuessTheSound,2020.2.10,59.98382834846699,
Chomp_E.wav,2,2,SIMILAR,B,,,,,0,81,81,81,,,,,,,,,,,,,,,,,,,,,,,,,,,,,,,,,,,,,,,,,,,,,,,,,,,,,,,,,,,,,,,,,,,,,,,,,,,,,,376.51912209996954,None,378.0527207999723,None,378.05525920004584,None,378.05525920004584,None,380.254023199901,None,3,0,0.5594419999979436,380.254023199901,None,,001,2021_Mar_01_1629,GuessTheSound,2020.2.10,59.98382834846699,
Test/Foils/Airhorn.wav,2,3,NEW,B,,,,,0,82,82,82,,,,,,,,,,,,,,,,,,,,,,,,,,,,,,,,,,,,,,,,,,,,,,,,,,,,,,,,,,,,,,,,,,,,,,,,,,,,,,380.8375808999408,None,382.38628150003495,None,382.3932099000085,None,382.3932099000085,None,384.62030990002677,None,3,1,0.4600134000647813,384.62030990002677,None,,001,2021_Mar_01_1629,GuessTheSound,2020.2.10,59.98382834846699,
Initial/Doubled/Writing_A.wav,2,3,NEW,B,,,,,0,83,83,83,,,,,,,,,,,,,,,,,,,,,,,,,,,,,,,,,,,,,,,,,,,,,,,,,,,,,,,,,,,,,,,,,,,,,,,,,,,,,,385.10624679992907,None,386.652687800047,None,386.66208370006643,None,386.66208370006643,None,388.8871216000989,None,3,1,1.147481800056994,388.8871216000989,None,,001,2021_Mar_01_1629,GuessTheSound,2020.2.10,59.98382834846699,
Initial/Doubled/Cuckoo_A.wav,2,3,NEW,B,,,,,0,84,84,84,,,,,,,,,,,,,,,,,,,,,,,,,,,,,,,,,,,,,,,,,,,,,,,,,,,,,,,,,,,,,,,,,,,,,,,,,,,,,,390.053229900077,None,391.6026680999435,None,391.60000280011445,None,391.60000280011445,None,393.8201880999841,None,3,1,0.29579000012017787,393.8201880999841,None,,001,2021_Mar_01_1629,GuessTheSound,2020.2.10,59.98382834846699,
Initial/Repeat/IceDrop.wav,2,3,NEW,B,,,,,0,85,85,85,,,,,,,,,,,,,,,,,,,,,,,,,,,,,,,,,,,,,,,,,,,,,,,,,,,,,,,,,,,,,,,,,,,,,,,,,,,,,,394.13586620008573,None,395.6856514999177,None,395.6831934999209,None,395.6831934999209,None,397.9037228000816,None,3,1,0.5131687999237329,397.9037228000816,None,,001,2021_Mar_01_1629,GuessTheSound,2020.2.10,59.98382834846699,
CarStart_E.wav,2,2,SIMILAR,B,,,,,0,86,86,86,,,,,,,,,,,,,,,,,,,,,,,,,,,,,,,,,,,,,,,,,,,,,,,,,,,,,,,,,,,,,,,,,,,,,,,,,,,,,,398.442332000006,None,400.00288059995506,None,400.00170130003244,None,400.00170130003244,None,402.2200837000273,None,2,1,0.35567079996690154,402.2200837000273,None,,001,2021_Mar_01_1629,GuessTheSound,2020.2.10,59.98382834846699,
Baby_F.wav,2,3,NEW,B,,,,,0,87,87,87,,,,,,,,,,,,,,,,,,,,,,,,,,,,,,,,,,,,,,,,,,,,,,,,,,,,,,,,,,,,,,,,,,,,,,,,,,,,,,402.60551359993406,None,404.16899999990125,None,404.1640886000823,None,404.1640886000823,None,406.38696500007063,None,3,1,0.3627363000996411,406.38696500007063,None,,001,2021_Mar_01_1629,GuessTheSound,2020.2.10,59.98382834846699,
Initial/NoRepeat/Puff_A.wav,2,3,NEW,B,,,,,0,88,88,88,,,,,,,,,,,,,,,,,,,,,,,,,,,,,,,,,,,,,,,,,,,,,,,,,,,,,,,,,,,,,,,,,,,,,,,,,,,,,,406.7677537999116,None,408.30239000001455,None,408.30705419997685,None,408.30705419997685,None,410.00328389997594,None,3,1,0.22148640011437237,410.00328389997594,None,,001,2021_Mar_01_1629,GuessTheSound,2020.2.10,59.98382834846699,
Initial/NoRepeat/Droplet_B.wav,1,1,OLD,B,,,,,0,89,89,89,,,,,,,,,,,,,,,,,,,,,,,,,,,,,,,,,,,,,,,,,,,,,,,,,,,,,,,,,,,,,,,,,,,,,,,,,,,,,,410.2542320000939,None,411.7690163999563,None,411.7747206001077,None,411.7747206001077,None,413.9366957000457,None,1,1,0.38155309995636344,413.9366957000457,None,,001,2021_Mar_01_1629,GuessTheSound,2020.2.10,59.98382834846699,
Test/Lures/Guitar_B.wav,1,1,OLD,B,,,,,0,90,90,90,,,,,,,,,,,,,,,,,,,,,,,,,,,,,,,,,,,,,,,,,,,,,,,,,,,,,,,,,,,,,,,,,,,,,,,,,,,,,,414.3396473999601,None,415.8526600000681,None,415.86334759998135,None,415.86334759998135,None,418.08667939994484,None,3,0,0.3261898998171091,418.08667939994484,None,,001,2021_Mar_01_1629,GuessTheSound,2020.2.10,59.98382834846699,
Initial/Repeat/PaperRip.wav,2,3,NEW,B,,,,,0,91,91,91,,,,,,,,,,,,,,,,,,,,,,,,,,,,,,,,,,,,,,,,,,,,,,,,,,,,,,,,,,,,,,,,,,,,,,,,,,,,,,418.43723940011114,None,420.00206149988804,None,419.99779270007275,None,419.99779270007275,None,421.5865494001191,None,3,1,0.3210343001410365,421.5865494001191,None,,001,2021_Mar_01_1629,GuessTheSound,2020.2.10,59.98382834846699,
Initial/NoRepeat/Mosquito_B.wav,1,1,OLD,B,,,,,0,92,92,92,,,,,,,,,,,,,,,,,,,,,,,,,,,,,,,,,,,,,,,,,,,,,,,,,,,,,,,,,,,,,,,,,,,,,,,,,,,,,,421.9430547999218,None,423.4524974999716,None,423.4597611001227,None,423.4597611001227,None,425.60337079991587,None,3,0,0.30552490008994937,425.60337079991587,None,,001,2021_Mar_01_1629,GuessTheSound,2020.2.10,59.98382834846699,
Initial/Repeat/Trumpet_B.wav,2,3,NEW,B,,,,,0,93,93,93,,,,,,,,,,,,,,,,,,,,,,,,,,,,,,,,,,,,,,,,,,,,,,,,,,,,,,,,,,,,,,,,,,,,,,,,,,,,,,425.9393581999466,None,427.4854576000245,None,427.4936611999292,None,427.4936611999292,None,429.7197453000117,None,3,1,0.2875913998577744,429.7197453000117,None,,001,2021_Mar_01_1629,GuessTheSound,2020.2.10,59.98382834846699,
Test/Foils/Bullfrog.wav,2,3,NEW,B,,,,,0,94,94,94,,,,,,,,,,,,,,,,,,,,,,,,,,,,,,,,,,,,,,,,,,,,,,,,,,,,,,,,,,,,,,,,,,,,,,,,,,,,,,430.03758640005253,None,431.5856280999025,None,431.5896578000393,None,431.5896578000393,None,433.80334510002285,None,3,1,0.8714737000409514,433.80334510002285,None,,001,2021_Mar_01_1629,GuessTheSound,2020.2.10,59.98382834846699,
Elephant_D.wav,2,2,SIMILAR,B,,,,,0,95,95,95,,,,,,,,,,,,,,,,,,,,,,,,,,,,,,,,,,,,,,,,,,,,,,,,,,,,,,,,,,,,,,,,,,,,,,,,,,,,,,434.7052072000224,None,436.2689553998876,None,436.2625392000191,None,436.2625392000191,None,438.4865635000169,None,2,1,0.3964509000070393,438.4865635000169,None,,001,2021_Mar_01_1629,GuessTheSound,2020.2.10,59.98382834846699,
Initial/Repeat/Sneeze_B.wav,2,3,NEW,B,,,,,0,96,96,96,,,,,,,,,,,,,,,,,,,,,,,,,,,,,,,,,,,,,,,,,,,,,,,,,,,,,,,,,,,,,,,,,,,,,,,,,,,,,,438.90376039990224,None,440.45208490004296,None,440.45978530007415,None,440.45978530007415,None,441.6861986001022,None,3,1,0.34525410016067326,441.6861986001022,None,,001,2021_Mar_01_1629,GuessTheSound,2020.2.10,59.98382834846699,
Test/Foils/Camera.wav,1,1,OLD,B,,,,,0,97,97,97,,,,,,,,,,,,,,,,,,,,,,,,,,,,,,,,,,,,,,,,,,,,,,,,,,,,,,,,,,,,,,,,,,,,,,,,,,,,,,442.0525281999726,None,443.5524933000328,None,443.5604719000403,None,443.5604719000403,None,444.53663469990715,None,3,0,0.5866880000103265,444.53663469990715,None,,001,2021_Mar_01_1629,GuessTheSound,2020.2.10,59.98382834846699,
Initial/Doubled/Cat_A.wav,2,3,NEW,B,,,,,0,98,98,98,,,,,,,,,,,,,,,,,,,,,,,,,,,,,,,,,,,,,,,,,,,,,,,,,,,,,,,,,,,,,,,,,,,,,,,,,,,,,,445.15526570007205,None,446.7185316999908,None,446.7115281999577,None,446.7115281999577,None,448.1366010000929,None,3,1,0.0949074998497963,448.1366010000929,None,,001,2021_Mar_01_1629,GuessTheSound,2020.2.10,59.98382834846699,
Test/Foils/Steam.wav,1,1,OLD,B,,,,,0,99,99,99,,,,,,,,,,,,,,,,,,,,,,,,,,,,,,,,,,,,,,,,,,,,,,,,,,,,,,,,,,,,,,,,,,,,,,,,,,,,,,448.2533078000415,None,449.7687051000306,None,449.7765528000891,None,449.7765528000891,None,452.00295069999993,None,3,0,0.03641940001398325,452.00295069999993,None,,001,2021_Mar_01_1629,GuessTheSound,2020.2.10,59.98382834846699,
Writing_C.wav,2,2,SIMILAR,B,,,,,0,100,100,100,,,,,,,,,,,,,,,,,,,,,,,,,,,,,,,,,,,,,,,,,,,,,,,,,,,,,,,,,,,,,,,,,,,,,,,,,,,,,,452.07335989992134,None,453.6349616000894,None,453.62919649994,None,453.62919649994,None,455.8530035999138,None,2,1,0.7252879999577999,455.8530035999138,None,,001,2021_Mar_01_1629,GuessTheSound,2020.2.10,59.98382834846699,
Initial/Repeat/IceDrop.wav,1,1,OLD,B,,,,,0,101,101,101,,,,,,,,,,,,,,,,,,,,,,,,,,,,,,,,,,,,,,,,,,,,,,,,,,,,,,,,,,,,,,,,,,,,,,,,,,,,,,456.60687640006654,None,458.1188493000576,None,458.12408300000243,None,458.12408300000243,None,460.33642100007273,None,1,1,0.29605069989338517,460.33642100007273,None,,001,2021_Mar_01_1629,GuessTheSound,2020.2.10,59.98382834846699,
Test/Foils/Slurp.wav,2,3,NEW,B,,,,,0,102,102,102,,,,,,,,,,,,,,,,,,,,,,,,,,,,,,,,,,,,,,,,,,,,,,,,,,,,,,,,,,,,,,,,,,,,,,,,,,,,,,460.65464910003357,None,462.2351022999501,None,462.2358297999017,None,462.2358297999017,None,464.4529766999185,None,3,1,0.2059611000586301,464.4529766999185,None,,001,2021_Mar_01_1629,GuessTheSound,2020.2.10,59.98382834846699,
Baby_E.wav,2,2,SIMILAR,B,,,,,0,103,103,103,,,,,,,,,,,,,,,,,,,,,,,,,,,,,,,,,,,,,,,,,,,,,,,,,,,,,,,,,,,,,,,,,,,,,,,,,,,,,,464.6912607999984,None,466.25227079996836,None,466.2521850001067,None,466.2521850001067,None,468.46945509989746,None,2,1,0.5141773999202996,468.46945509989746,None,,001,2021_Mar_01_1629,GuessTheSound,2020.2.10,59.98382834846699,
Test/Foils/DialTone.wav,2,3,NEW,B,,,,,0,104,104,104,,,,,,,,,,,,,,,,,,,,,,,,,,,,,,,,,,,,,,,,,,,,,,,,,,,,,,,,,,,,,,,,,,,,,,,,,,,,,,469.0032246999908,None,470.5354326999979,None,470.5431613998953,None,470.5431613998953,None,472.76941860001534,None,3,1,0.3430496999062598,472.76941860001534,None,,001,2021_Mar_01_1629,GuessTheSound,2020.2.10,59.98382834846699,
Initial/NoRepeat/Puff_A.wav,1,1,OLD,B,,,,,0,105,105,105,,,,,,,,,,,,,,,,,,,,,,,,,,,,,,,,,,,,,,,,,,,,,,,,,,,,,,,,,,,,,,,,,,,,,,,,,,,,,,473.1380419000052,None,474.6520625001052,None,474.65908550005406,None,474.65908550005406,None,476.352864400018,None,1,1,0.5205586000811309,476.352864400018,None,,001,2021_Mar_01_1629,GuessTheSound,2020.2.10,59.98382834846699,
Initial/Repeat/Buzz.wav,2,3,NEW,B,,,,,0,106,106,106,,,,,,,,,,,,,,,,,,,,,,,,,,,,,,,,,,,,,,,,,,,,,,,,,,,,,,,,,,,,,,,,,,,,,,,,,,,,,,476.9066496999003,None,478.45152679986785,None,478.46141520002857,None,478.46141520002857,None,480.6861827999819,None,3,1,0.28040080005303025,480.6861827999819,None,,001,2021_Mar_01_1629,GuessTheSound,2020.2.10,59.98382834846699,
Test/Foils/Airhorn.wav,1,1,OLD,B,,,,,0,107,107,107,,,,,,,,,,,,,,,,,,,,,,,,,,,,,,,,,,,,,,,,,,,,,,,,,,,,,,,,,,,,,,,,,,,,,,,,,,,,,,480.9853131000418,None,482.4850552000338,None,482.49517509993166,None,482.49517509993166,None,484.71923470008187,None,3,0,0.28520990000106394,484.71923470008187,None,,001,2021_Mar_01_1629,GuessTheSound,2020.2.10,59.98382834846699,
Initial/NoRepeat/Sleighbells_B.wav,2,3,NEW,B,,,,,0,108,108,108,,,,,,,,,,,,,,,,,,,,,,,,,,,,,,,,,,,,,,,,,,,,,,,,,,,,,,,,,,,,,,,,,,,,,,,,,,,,,,485.03657489991747,None,486.58528090005274,None,486.5927689000964,None,486.5927689000964,None,488.8192567001097,None,3,1,0.18649140000343323,488.8192567001097,None,,001,2021_Mar_01_1629,GuessTheSound,2020.2.10,59.98382834846699,
Initial/Doubled/Cuckoo_A.wav,1,1,OLD,B,,,,,0,109,109,109,,,,,,,,,,,,,,,,,,,,,,,,,,,,,,,,,,,,,,,,,,,,,,,,,,,,,,,,,,,,,,,,,,,,,,,,,,,,,,489.036579299951,None,490.55165020001584,None,490.5598949000705,None,490.5598949000705,None,492.7860976001248,None,3,0,0.27129950001835823,492.7860976001248,None,,001,2021_Mar_01_1629,GuessTheSound,2020.2.10,59.98382834846699,
Test/Foils/Wind_B.wav,2,3,NEW,B,,,,,0,110,110,110,,,,,,,,,,,,,,,,,,,,,,,,,,,,,,,,,,,,,,,,,,,,,,,,,,,,,,,,,,,,,,,,,,,,,,,,,,,,,,493.08494199998677,None,494.60114319990385,None,494.59461529995315,None,494.59461529995315,None,496.8190556000918,None,3,1,0.3141790998633951,496.8190556000918,None,,001,2021_Mar_01_1629,GuessTheSound,2020.2.10,59.98382834846699,
Test/Foils/Typing.wav,2,3,NEW,B,,,,,0,111,111,111,,,,,,,,,,,,,,,,,,,,,,,,,,,,,,,,,,,,,,,,,,,,,,,,,,,,,,,,,,,,,,,,,,,,,,,,,,,,,,497.15414900006726,None,498.7179704999085,None,498.71335390000604,None,498.71335390000604,None,500.9356925999746,None,1,0,0.2862205000128597,500.9356925999746,None,,001,2021_Mar_01_1629,GuessTheSound,2020.2.10,59.98382834846699,
Test/Lures/Bubbles_B.wav,2,2,SIMILAR,B,,,,,0,112,112,112,,,,,,,,,,,,,,,,,,,,,,,,,,,,,,,,,,,,,,,,,,,,,,,,,,,,,,,,,,,,,,,,,,,,,,,,,,,,,,501.2574841999449,None,502.8013361000223,None,502.8119433000684,None,502.8119433000684,None,505.03582140011713,None,2,1,0.3850336999166757,505.03582140011713,None,,001,2021_Mar_01_1629,GuessTheSound,2020.2.10,59.98382834846699,
Duck_A.wav,2,3,NEW,B,,,,,0,113,113,113,,,,,,,,,,,,,,,,,,,,,,,,,,,,,,,,,,,,,,,,,,,,,,,,,,,,,,,,,,,,,,,,,,,,,,,,,,,,,,505.44182189996354,None,507.0014669000171,None,506.9954144000076,None,506.9954144000076,None,509.1024817000143,None,3,1,0.19056799984537065,509.1024817000143,None,,001,2021_Mar_01_1629,GuessTheSound,2020.2.10,59.98382834846699,
Initial/Repeat/Trumpet_B.wav,1,1,OLD,B,,,,,0,114,114,114,,,,,,,,,,,,,,,,,,,,,,,,,,,,,,,,,,,,,,,,,,,,,,,,,,,,,,,,,,,,,,,,,,,,,,,,,,,,,,509.3185678999871,None,510.8348296000156,None,510.82807180006057,None,510.82807180006057,None,513.0564419000875,None,1,1,0.7225416998844594,513.0564419000875,None,,001,2021_Mar_01_1629,GuessTheSound,2020.2.10,59.98382834846699,
Initial/Repeat/PaperRip.wav,1,1,OLD,B,,,,,0,115,115,115,,,,,,,,,,,,,,,,,,,,,,,,,,,,,,,,,,,,,,,,,,,,,,,,,,,,,,,,,,,,,,,,,,,,,,,,,,,,,,513.8082856000401,None,515.3215260999044,None,515.3284084999468,None,515.3284084999468,None,516.922690999927,None,1,1,0.6598249999806285,516.922690999927,None,,001,2021_Mar_01_1629,GuessTheSound,2020.2.10,59.98382834846699,
Initial/Repeat/Sneeze_B.wav,1,1,OLD,B,,,,,0,116,116,116,,,,,,,,,,,,,,,,,,,,,,,,,,,,,,,,,,,,,,,,,,,,,,,,,,,,,,,,,,,,,,,,,,,,,,,,,,,,,,517.6110938999336,None,519.1238556001102,None,519.1336014999542,None,519.1336014999542,None,520.3562507000752,None,1,1,1.3179344001691788,520.3562507000752,None,,001,2021_Mar_01_1629,GuessTheSound,2020.2.10,59.98382834846699,
Pour_E.wav,2,3,NEW,B,,,,,0,117,117,117,,,,,,,,,,,,,,,,,,,,,,,,,,,,,,,,,,,,,,,,,,,,,,,,,,,,,,,,,,,,,,,,,,,,,,,,,,,,,,521.7109644000884,None,523.2560593999689,None,523.2665015999228,None,523.2665015999228,None,525.4922935001086,None,3,1,0.5820528001058847,525.4922935001086,None,,001,2021_Mar_01_1629,GuessTheSound,2020.2.10,59.98382834846699,
Initial/Doubled/Cat_A.wav,1,1,OLD,B,,,,,0,118,118,118,,,,,,,,,,,,,,,,,,,,,,,,,,,,,,,,,,,,,,,,,,,,,,,,,,,,,,,,,,,,,,,,,,,,,,,,,,,,,,526.1093343999237,None,527.6228648999007,None,527.6304260001052,None,527.6304260001052,None,529.0519876999315,None,1,1,0.14893130003474653,529.0519876999315,None,,001,2021_Mar_01_1629,GuessTheSound,2020.2.10,59.98382834846699,
Test/Foils/Slurp.wav,1,1,OLD,B,,,,,0,119,119,119,,,,,,,,,,,,,,,,,,,,,,,,,,,,,,,,,,,,,,,,,,,,,,,,,,,,,,,,,,,,,,,,,,,,,,,,,,,,,,529.2173746000044,None,530.7344019000418,None,530.7278132000938,None,530.7278132000938,None,532.9522375001106,None,1,1,0.2935278001241386,532.9522375001106,None,,001,2021_Mar_01_1629,GuessTheSound,2020.2.10,59.98382834846699,
Test/Foils/Bullfrog.wav,1,1,OLD,B,,,,,0,120,120,120,,,,,,,,,,,,,,,,,,,,,,,,,,,,,,,,,,,,,,,,,,,,,,,,,,,,,,,,,,,,,,,,,,,,,,,,,,,,,,533.2679117999505,None,534.7844533000141,None,534.7797658001073,None,534.7797658001073,None,537.0022378999274,None,3,0,0.7803778999950737,537.0022378999274,None,,001,2021_Mar_01_1629,GuessTheSound,2020.2.10,59.98382834846699,
Test/Foils/Wind_B.wav,1,1,OLD,B,,,,,0,121,121,121,,,,,,,,,,,,,,,,,,,,,,,,,,,,,,,,,,,,,,,,,,,,,,,,,,,,,,,,,,,,,,,,,,,,,,,,,,,,,,537.8027194000315,None,539.3178570999065,None,539.3283967999741,None,539.3283967999741,None,541.5522400999907,None,1,1,0.19354659994132817,541.5522400999907,None,,001,2021_Mar_01_1629,GuessTheSound,2020.2.10,59.98382834846699,
Duck_B.wav,2,2,SIMILAR,B,,,,,0,122,122,122,,,,,,,,,,,,,,,,,,,,,,,,,,,,,,,,,,,,,,,,,,,,,,,,,,,,,,,,,,,,,,,,,,,,,,,,,,,,,,541.770542900078,None,543.3008777000475,None,543.3035736999009,None,543.3035736999009,None,545.0184673999902,None,2,1,0.8196612999308854,545.0184673999902,None,,001,2021_Mar_01_1629,GuessTheSound,2020.2.10,59.98382834846699,
Test/Foils/DialTone.wav,1,1,OLD,B,,,,,0,123,123,123,,,,,,,,,,,,,,,,,,,,,,,,,,,,,,,,,,,,,,,,,,,,,,,,,,,,,,,,,,,,,,,,,,,,,,,,,,,,,,545.871729800012,None,547.3843143998878,None,547.3923893000465,None,547.3923893000465,None,549.6185952001251,None,1,1,0.4365401000250131,549.6185952001251,None,,001,2021_Mar_01_1629,GuessTheSound,2020.2.10,59.98382834846699,
Initial/Repeat/Buzz.wav,1,1,OLD,B,,,,,0,124,124,124,,,,,,,,,,,,,,,,,,,,,,,,,,,,,,,,,,,,,,,,,,,,,,,,,,,,,,,,,,,,,,,,,,,,,,,,,,,,,,550.0892090999987,None,551.6012492999201,None,551.6083241999149,None,551.6083241999149,None,553.8354555999395,None,1,1,0.3771905000321567,553.8354555999395,None,,001,2021_Mar_01_1629,GuessTheSound,2020.2.10,59.98382834846699,
Pour_C.wav,2,2,SIMILAR,B,,,,,0,125,125,125,,,,,,,,,,,,,,,,,,,,,,,,,,,,,,,,,,,,,,,,,,,,,,,,,,,,,,,,,,,,,,,,,,,,,,,,,,,,,,554.235354000004,None,555.7842252998613,None,555.7849298999645,None,555.7849298999645,None,558.0020999999251,None,2,1,1.4626724000554532,558.0020999999251,None,,001,2021_Mar_01_1629,GuessTheSound,2020.2.10,59.98382834846699,
Test/Foils/Typing.wav,1,1,OLD,B,,,,,0,126,126,126,,,,,,,,,,,,,,,,,,,,,,,,,,,,,,,,,,,,,,,,,,,,,,,,,,,,,,,,,,,,,,,,,,,,,,,,,,,,,,559.4863591999747,None,561.0008342999266,None,561.0084567000158,None,561.0084567000158,None,563.2354166998994,None,1,1,0.765532199991867,563.2354166998994,None,,001,2021_Mar_01_1629,GuessTheSound,2020.2.10,59.98382834846699,
Initial/NoRepeat/Sleighbells_B.wav,1,1,OLD,B,,,,,0,127,127,127,,,,,,,,,,,,,,,,,,,,,,,,,,,,,,,,,,,,,,,,,,,,,,,,,,,,,,,,,,,,,,,,,,,,,,,,,,,,,,564.019180299947,None,565.5340871999273,None,565.5440972999204,None,565.5440972999204,None,567.7683838000521,None,1,1,0.18625949998386204,567.7683838000521,None,,001,2021_Mar_01_1629,GuessTheSound,2020.2.10,59.98382834846699,
