SoundFiles,trials.thisRepN,trials.thisTrialN,trials.thisN,trials.thisIndex,InstructionTxt.started,InstructionTxt.stopped,WelcomContinue.started,WelcomContinue.stopped,InstructionTxt2.started,InstructionTxt2.stopped,WelcomeContinue2.started,WelcomeContinue2.stopped,WelcomeContinueKey2.keys,WelcomeContinueKey2.rt,WelcomeContinueKey2.started,WelcomeContinueKey2.stopped,VolumeBeginTxt.started,VolumeBeginTxt.stopped,VolumeContinue.started,VolumeContinue.stopped,VolumeContinueKey.keys,VolumeContinueKey.rt,VolumeContinueKey.started,VolumeContinueKey.stopped,text.started,text.stopped,Music.started,Music.stopped,AdjustContinue.started,AdjustContinue.stopped,StartTxt.started,StartTxt.stopped,no3.started,no3.stopped,no2.started,no2.stopped,no1.started,no1.stopped,Question.started,Question.stopped,ResponseBox.text,ResponseBox.started,ResponseBox.stopped,SubmitClick.started,SubmitClick.stopped,ClickTheButton.started,ClickTheButton.stopped,SoundItem.started,SoundItem.stopped,ItemNo.started,ItemNo.stopped,Submit.started,Submit.stopped,participant,session,date,expName,psychopyVersion,frameRate,
,,,,,8.669726300053298,None,8.669726300053298,None,9.624100300017744,None,9.624100300017744,None,space,0.6147890000138432,9.624100300017744,None,,,,,,,,,,,,,,,,,,,,,,,,,,,,,,,,,,,,,,,001,2021_Jan_04_2200,GuessTheSound,2020.2.10,59.97242470652595,
,,,,,,,,,,,,,,,,,10.257173599908128,None,10.257173599908128,None,space,0.8941235998645425,10.257173599908128,None,,,,,,,,,,,,,,,,,,,,,,,,,,,,,,,001,2021_Jan_04_2200,GuessTheSound,2020.2.10,59.97242470652595,
Initial/Repeat/Trumpet_B.wav,0,0,0,49,,,,,,,,,,,,,,,,,,,,,11.234268200118095,None,11.223918919963763,None,11.234268200118095,None,11.973401499912143,None,14.006537399953231,None,14.990047400118783,None,15.989873300073668,None,17.02854249998927,None,"

",17.02854249998927,None,0.007219040300697088,None,17.02854249998927,None,17.023851640033538,None,17.02854249998927,None,17.02854249998927,None,,001,2021_Jan_04_2200,GuessTheSound,2020.2.10,59.97242470652595,
Piano_B.wav,0,1,1,77,,,,,,,,,,,,,,,,,,,,,,,,,,,,,18.656640500063077,None,19.656858700094745,None,20.656215199967846,None,21.65785799990408,None,"

",21.65785799990408,None,0.008612480014562607,None,21.65785799990408,None,21.65664137999993,None,21.65785799990408,None,21.65785799990408,None,,001,2021_Jan_04_2200,GuessTheSound,2020.2.10,59.97242470652595,
Initial/NoRepeat/Footsteps_B.wav,0,2,2,14,,,,,,,,,,,,,,,,,,,,,,,,,,,,,22.690050899982452,None,23.68962089996785,None,24.689671700121835,None,25.71366719994694,None,"

",25.71366719994694,None,0.011549559887498617,None,25.71366719994694,None,25.706668459950016,None,25.71366719994694,None,25.71366719994694,None,,001,2021_Jan_04_2200,GuessTheSound,2020.2.10,59.97242470652595,
Initial/Repeat/Pour.wav,0,3,3,1,,,,,,,,,,,,,,,,,,,,,,,,,,,,,28.173103200038895,None,29.173183500068262,None,30.17311240010895,None,31.187250999966636,None,"

",31.187250999966636,None,0.013197960099205375,None,31.187250999966636,None,31.19003145992756,None,31.187250999966636,None,31.187250999966636,None,,001,2021_Jan_04_2200,GuessTheSound,2020.2.10,59.97242470652595,
Test/Foils/Bullfrog.wav,0,4,4,19,,,,,,,,,,,,,,,,,,,,,,,,,,,,,33.6233377000317,None,34.62296979990788,None,35.62304130010307,None,36.64665189990774,None,"

",36.64665189990774,None,0.010289260186254978,None,36.64665189990774,None,36.63998476010747,None,36.64665189990774,None,36.64665189990774,None,,001,2021_Jan_04_2200,GuessTheSound,2020.2.10,59.97242470652595,
Test/Foils/Typing.wav,0,5,5,6,,,,,,,,,,,,,,,,,,,,,,,,,,,,,39.22937640012242,None,40.239304000046104,None,41.23988669994287,None,42.27804229990579,None,"

",42.27804229990579,None,0.00025685993023216724,None,42.27804229990579,None,42.25671415999531,None,42.27804229990579,None,42.27804229990579,None,,001,2021_Jan_04_2200,GuessTheSound,2020.2.10,59.97242470652595,
Initial/Doubled/Gargle_A.wav,0,6,6,47,,,,,,,,,,,,,,,,,,,,,,,,,,,,,43.63733789999969,None,44.63988730008714,None,45.63997279992327,None,46.68007640005089,None,"

",46.68007640005089,None,0.013881239807233214,None,46.68007640005089,None,46.67335743990261,None,46.68007640005089,None,46.68007640005089,None,,001,2021_Jan_04_2200,GuessTheSound,2020.2.10,59.97242470652595,
Test/Foils/DialTone.wav,0,7,7,27,,,,,,,,,,,,,,,,,,,,,,,,,,,,,47.63346750009805,None,48.639995200093836,None,49.63982230005786,None,50.66878790012561,None,"

",50.66878790012561,None,0.011433960171416402,None,50.66878790012561,None,50.65654266010969,None,50.66878790012561,None,50.66878790012561,None,,001,2021_Jan_04_2200,GuessTheSound,2020.2.10,59.97242470652595,
Initial/NoRepeat/Mosquito_B.wav,0,8,8,25,,,,,,,,,,,,,,,,,,,,,,,,,,,,,51.82283470011316,None,52.82314849994145,None,53.82315870001912,None,54.85030740010552,None,"

",54.85030740010552,None,0.009890660177916288,None,54.85030740010552,None,54.83996935994364,None,54.85030740010552,None,54.85030740010552,None,,001,2021_Jan_04_2200,GuessTheSound,2020.2.10,59.97242470652595,
Pour_C.wav,0,9,9,50,,,,,,,,,,,,,,,,,,,,,,,,,,,,,55.98467450006865,None,56.98990479996428,None,58.00512479990721,None,59.024523300118744,None,"

",59.024523300118744,None,0.002351379720494151,None,59.024523300118744,None,59.00521377993282,None,59.024523300118744,None,59.024523300118744,None,,001,2021_Jan_04_2200,GuessTheSound,2020.2.10,59.97242470652595,
Dog_B.wav,0,10,10,68,,,,,,,,,,,,,,,,,,,,,,,,,,,,,61.860279200132936,None,62.872478200122714,None,63.87285950011574,None,64.89209250011481,None,"

",64.89209250011481,None,0.001863379729911685,None,64.89209250011481,None,64.87309858000371,None,64.89209250011481,None,64.89209250011481,None,,001,2021_Jan_04_2200,GuessTheSound,2020.2.10,59.97242470652595,
Initial/Doubled/Cuckoo_A.wav,0,11,11,44,,,,,,,,,,,,,,,,,,,,,,,,,,,,,67.03546299994923,None,68.0396118001081,None,69.03984889993444,None,70.07583920005709,None,"

",70.07583920005709,None,0.004178059985861182,None,70.07583920005709,None,70.0563888600096,None,70.07583920005709,None,70.07583920005709,None,,001,2021_Jan_04_2200,GuessTheSound,2020.2.10,59.97242470652595,
Test/Foils/Buzz.wav,0,12,12,8,,,,,,,,,,,,,,,,,,,,,,,,,,,,,72.30977859999985,None,73.32288029999472,None,74.3229237999767,None,75.35384300001897,None,"

",75.35384300001897,None,0.008093359880149364,None,75.35384300001897,None,75.33955145990475,None,75.35384300001897,None,75.35384300001897,None,,001,2021_Jan_04_2200,GuessTheSound,2020.2.10,59.97242470652595,
Test/Foils/Wind_B.wav,0,13,13,42,,,,,,,,,,,,,,,,,,,,,,,,,,,,,77.6372102999594,None,78.63973290007561,None,79.63953400007449,None,80.70081730000675,None,"

",80.70081730000675,None,0.010181420017033815,None,80.70081730000675,None,80.68970912001096,None,80.70081730000675,None,80.70081730000675,None,,001,2021_Jan_04_2200,GuessTheSound,2020.2.10,59.97242470652595,
Initial/Doubled/Cat_A.wav,0,14,14,37,,,,,,,,,,,,,,,,,,,,,,,,,,,,,83.15765599999577,None,84.17308340012096,None,85.17291530012153,None,86.1996146000456,None,"

",86.1996146000456,None,6.827991455793381e-05,None,86.1996146000456,None,86.18956155995838,None,86.1996146000456,None,86.1996146000456,None,,001,2021_Jan_04_2200,GuessTheSound,2020.2.10,59.97242470652595,
Cough_C.wav,0,15,15,75,,,,,,,,,,,,,,,,,,,,,,,,,,,,,87.57745139999315,None,88.58953030011617,None,89.58937830012292,None,90.60514939995483,None,"

",90.60514939995483,None,0.005027179839089513,None,90.60514939995483,None,90.58944698011037,None,90.60514939995483,None,90.60514939995483,None,,001,2021_Jan_04_2200,GuessTheSound,2020.2.10,59.97242470652595,
Test/Foils/Slurp.wav,0,16,16,31,,,,,,,,,,,,,,,,,,,,,,,,,,,,,92.28752869996242,None,93.28954289993271,None,94.28952370001934,None,95.31460870010778,None,"

",95.31460870010778,None,0.014311260310932994,None,95.31460870010778,None,95.30618286007083,None,95.31460870010778,None,95.31460870010778,None,,001,2021_Jan_04_2200,GuessTheSound,2020.2.10,59.97242470652595,
Initial/Doubled/Chicken_A.wav,0,17,17,17,,,,,,,,,,,,,,,,,,,,,,,,,,,,,96.96745830005966,None,97.9726811000146,None,98.97271790006198,None,99.99012490012683,None,"

",99.99012490012683,None,0.002533579943701625,None,99.99012490012683,None,99.97275518004317,None,99.99012490012683,None,99.99012490012683,None,,001,2021_Jan_04_2200,GuessTheSound,2020.2.10,59.97242470652595,
Initial/Repeat/ManWhistle.wav,0,18,18,29,,,,,,,,,,,,,,,,,,,,,,,,,,,,,101.24831119994633,None,102.25608960003592,None,103.25592519994825,None,104.27582180011086,None,"

",104.27582180011086,None,0.0016843799967318773,None,104.27582180011086,None,104.25599978009704,None,104.27582180011086,None,104.27582180011086,None,,001,2021_Jan_04_2200,GuessTheSound,2020.2.10,59.97242470652595,
Initial/Doubled/Growl_A.wav,0,19,19,18,,,,,,,,,,,,,,,,,,,,,,,,,,,,,105.49271310004406,None,106.50594979990274,None,107.5061123999767,None,108.52910190005787,None,"

",108.52910190005787,None,0.013231860008090734,None,108.52910190005787,None,108.52263226001523,None,108.52910190005787,None,108.52910190005787,None,,001,2021_Jan_04_2200,GuessTheSound,2020.2.10,59.97242470652595,
Initial/Doubled/Laugh_A.wav,0,20,20,34,,,,,,,,,,,,,,,,,,,,,,,,,,,,,110.3893790000584,None,111.38929590000771,None,112.38925060001202,None,113.41785000008531,None,"

",113.41785000008531,None,0.009421959985047579,None,113.41785000008531,None,113.40601795995607,None,113.41785000008531,None,113.41785000008531,None,,001,2021_Jan_04_2200,GuessTheSound,2020.2.10,59.97242470652595,
Initial/Repeat/IceDrop.wav,0,21,21,3,,,,,,,,,,,,,,,,,,,,,,,,,,,,,114.60020230012015,None,115.60586880007759,None,116.60596049996093,None,117.62840529996902,None,"

",117.62840529996902,None,0.012787360232323408,None,117.62840529996902,None,117.6225612600334,None,117.62840529996902,None,117.62840529996902,None,,001,2021_Jan_04_2200,GuessTheSound,2020.2.10,59.97242470652595,
Initial/NoRepeat/Helicopter_A.wav,0,22,22,39,,,,,,,,,,,,,,,,,,,,,,,,,,,,,119.84187599993311,None,120.85481850011274,None,121.85471240011975,None,122.87870249990374,None,"

",122.87870249990374,None,0.00951215997338295,None,122.87870249990374,None,122.87175065991468,None,122.87870249990374,None,122.87870249990374,None,,001,2021_Jan_04_2200,GuessTheSound,2020.2.10,59.97242470652595,
Initial/Doubled/Writing_A.wav,0,23,23,4,,,,,,,,,,,,,,,,,,,,,,,,,,,,,124.15987200010568,None,125.17261640005745,None,126.17253619991243,None,127.20420009992085,None,"

",127.20420009992085,None,0.007637060014531016,None,127.20420009992085,None,127.18915695990435,None,127.20420009992085,None,127.20420009992085,None,,001,2021_Jan_04_2200,GuessTheSound,2020.2.10,59.97242470652595,
Initial/NoRepeat/Elephant_A.wav,0,24,24,48,,,,,,,,,,,,,,,,,,,,,,,,,,,,,129.1597603999544,None,130.17240209993906,None,131.1723684000317,None,132.1947596000973,None,"

",132.1947596000973,None,7.98800028860569e-05,None,132.1947596000973,None,132.18935556001964,None,132.1947596000973,None,132.1947596000973,None,,001,2021_Jan_04_2200,GuessTheSound,2020.2.10,59.97242470652595,
Test/Foils/PaperRip.wav,0,25,25,21,,,,,,,,,,,,,,,,,,,,,,,,,,,,,134.40223080012947,None,135.4056923999451,None,136.4056428000331,None,137.43233860004693,None,"

",137.43233860004693,None,0.010828960221260786,None,137.43233860004693,None,137.42233156007717,None,137.43233860004693,None,137.43233860004693,None,,001,2021_Jan_04_2200,GuessTheSound,2020.2.10,59.97242470652595,
Initial/NoRepeat/Sleighbells_B.wav,0,26,26,35,,,,,,,,,,,,,,,,,,,,,,,,,,,,,139.33000020007603,None,140.3390355000738,None,141.33897850010544,None,142.3650096000638,None,"

",142.3650096000638,None,0.013519459869712591,None,142.3650096000638,None,142.35583815993743,None,142.3650096000638,None,142.3650096000638,None,,001,2021_Jan_04_2200,GuessTheSound,2020.2.10,59.97242470652595,
Footsteps_D.wav,0,27,27,61,,,,,,,,,,,,,,,,,,,,,,,,,,,,,143.61432759999298,None,144.62229080009274,None,145.62227430008352,None,146.64057329995558,None,"

",146.64057329995558,None,0.01666215993463993,None,146.64057329995558,None,146.63901455993766,None,146.64057329995558,None,146.64057329995558,None,,001,2021_Jan_04_2200,GuessTheSound,2020.2.10,59.97242470652595,
CarStart_B.wav,0,28,28,65,,,,,,,,,,,,,,,,,,,,,,,,,,,,,152.55198240000755,None,153.55550260003656,None,154.5554826001171,None,155.58378780004568,None,"

",155.58378780004568,None,0.01107945991680026,None,155.58378780004568,None,155.57214246005753,None,155.58378780004568,None,155.58378780004568,None,,001,2021_Jan_04_2200,GuessTheSound,2020.2.10,59.97242470652595,
Initial/NoRepeat/Fireworks.wav,0,29,29,5,,,,,,,,,,,,,,,,,,,,,,,,,,,,,157.47865790012293,None,158.48883050004952,None,159.48867049999535,None,160.5081176001113,None,"

",160.5081176001113,None,0.0017806796822696924,None,160.5081176001113,None,160.48867597996724,None,160.5081176001113,None,160.5081176001113,None,,001,2021_Jan_04_2200,GuessTheSound,2020.2.10,59.97242470652595,
Siren_B.wav,0,30,30,53,,,,,,,,,,,,,,,,,,,,,,,,,,,,,161.89509949996136,None,162.9054726001341,None,163.90528400009498,None,164.92485680012032,None,"

",164.92485680012032,None,0.000607979716733098,None,164.92485680012032,None,164.90544077993837,None,164.92485680012032,None,164.92485680012032,None,,001,2021_Jan_04_2200,GuessTheSound,2020.2.10,59.97242470652595,
Pour_B.wav,0,31,31,52,,,,,,,,,,,,,,,,,,,,,,,,,,,,,166.65209350013174,None,167.65541650005616,None,168.65790860005654,None,169.69268939993344,None,"

",169.69268939993344,None,0.01625216007232666,None,169.69268939993344,None,169.6887571598869,None,169.69268939993344,None,169.69268939993344,None,,001,2021_Jan_04_2200,GuessTheSound,2020.2.10,59.97242470652595,
Siren_C.wav,0,32,32,54,,,,,,,,,,,,,,,,,,,,,,,,,,,,,172.19198060012423,None,173.20527769997716,None,174.20546020008624,None,175.22506979992613,None,"

",175.22506979992613,None,0.0017554799560457468,None,175.22506979992613,None,175.20530908002985,None,175.22506979992613,None,175.22506979992613,None,,001,2021_Jan_04_2200,GuessTheSound,2020.2.10,59.97242470652595,
Initial/Repeat/Airplane_B.wav,0,33,33,10,,,,,,,,,,,,,,,,,,,,,,,,,,,,,176.50218329997733,None,177.50525879999623,None,178.5052352999337,None,179.55425869999453,None,"

",179.55425869999453,None,0.006809539860114455,None,179.55425869999453,None,179.53857023988385,None,179.55425869999453,None,179.55425869999453,None,,001,2021_Jan_04_2200,GuessTheSound,2020.2.10,59.97242470652595,
Initial/NoRepeat/Duck_A.wav,0,34,34,23,,,,,,,,,,,,,,,,,,,,,,,,,,,,,181.9972723000683,None,183.00544079998508,None,184.0052885999903,None,185.02360330009833,None,"

",185.02360330009833,None,0.0013082800433039665,None,185.02360330009833,None,185.00513618004044,None,185.02360330009833,None,185.02360330009833,None,,001,2021_Jan_04_2200,GuessTheSound,2020.2.10,59.97242470652595,
Baby_A.wav,0,35,35,56,,,,,,,,,,,,,,,,,,,,,,,,,,,,,187.9255407000892,None,188.9382937999908,None,189.93842700007372,None,190.95802620006725,None,"

",190.95802620006725,None,0.0015349800232797861,None,190.95802620006725,None,190.93855908007828,None,190.95802620006725,None,190.95802620006725,None,,001,2021_Jan_04_2200,GuessTheSound,2020.2.10,59.97242470652595,
Initial/Doubled/Clap_A.wav,0,36,36,41,,,,,,,,,,,,,,,,,,,,,,,,,,,,,193.3162501999177,None,194.32183060003445,None,195.3215469000861,None,196.3592314000707,None,"

",196.3592314000707,None,0.0029384600929915905,None,196.3592314000707,None,196.33843225999738,None,196.3592314000707,None,196.3592314000707,None,,001,2021_Jan_04_2200,GuessTheSound,2020.2.10,59.97242470652595,
Siren_D.wav,0,37,37,55,,,,,,,,,,,,,,,,,,,,,,,,,,,,,197.82344450009987,None,198.8384090999607,None,199.8383319999557,None,200.85727509995922,None,"

",200.85727509995922,None,0.0005867797881364822,None,200.85727509995922,None,200.8385638800217,None,200.85727509995922,None,200.85727509995922,None,,001,2021_Jan_04_2200,GuessTheSound,2020.2.10,59.97242470652595,
Initial/Doubled/Guitar_A.wav,0,38,38,20,,,,,,,,,,,,,,,,,,,,,,,,,,,,,202.86740450002253,None,203.8716045001056,None,204.87171100010164,None,205.91638750000857,None,"

",205.91638750000857,None,0.010863639647141099,None,205.91638750000857,None,205.90506903987844,None,205.91638750000857,None,205.91638750000857,None,,001,2021_Jan_04_2200,GuessTheSound,2020.2.10,59.97242470652595,
Bird_B.wav,0,39,39,62,,,,,,,,,,,,,,,,,,,,,,,,,,,,,207.46827489999123,None,208.47152310004458,None,209.47154749999754,None,210.49062930000946,None,"

",210.49062930000946,None,0.003704979782924056,None,210.49062930000946,None,210.47175207997208,None,210.49062930000946,None,210.49062930000946,None,,001,2021_Jan_04_2200,GuessTheSound,2020.2.10,59.97242470652595,
Test/Foils/Heartbeat.wav,0,40,40,22,,,,,,,,,,,,,,,,,,,,,,,,,,,,,212.6772974000778,None,213.68834049999714,None,214.68836889998056,None,215.70925979991443,None,"

",215.70925979991443,None,0.015701660187914968,None,215.70925979991443,None,215.70482186009178,None,215.70925979991443,None,215.70925979991443,None,,001,2021_Jan_04_2200,GuessTheSound,2020.2.10,59.97242470652595,
Initial/NoRepeat/Droplet_B.wav,0,41,41,0,,,,,,,,,,,,,,,,,,,,,,,,,,,,,218.0586596999783,None,219.07150939991698,None,220.07139459997416,None,221.09222160000354,None,"

",221.09222160000354,None,0.0013851798139512539,None,221.09222160000354,None,221.07153777994682,None,221.09222160000354,None,221.09222160000354,None,,001,2021_Jan_04_2200,GuessTheSound,2020.2.10,59.97242470652595,
CarStart_D.wav,0,42,42,67,,,,,,,,,,,,,,,,,,,,,,,,,,,,,223.94780350010842,None,224.9549370999448,None,225.9549012000207,None,226.97611779998988,None,"

",226.97611779998988,None,0.015314460266381502,None,226.97611779998988,None,226.9714922599029,None,226.97611779998988,None,226.97611779998988,None,,001,2021_Jan_04_2200,GuessTheSound,2020.2.10,59.97242470652595,
,,,,,,,,,,,,,,,,,,,,,,,,,,,,,,,,,231.26241030008532,None,232.27138020005077,None,233.27146720001474,None,,,,,,,,,,,,,,,,,,,,,,
