File,Correct,SoundFile,Correct2,Type,trials_2.thisRepN,trials_2.thisTrialN,trials_2.thisN,trials_2.thisIndex,PracticeTrials.thisRepN,PracticeTrials.thisTrialN,PracticeTrials.thisN,PracticeTrials.thisIndex,trials.thisRepN,trials.thisTrialN,trials.thisN,trials.thisIndex,InstructionTxt.started,InstructionTxt.stopped,WelcomContinue.started,WelcomContinue.stopped,VolumeBeginTxt.started,VolumeBeginTxt.stopped,VolumeContinueKey.keys,VolumeContinueKey.rt,VolumeContinueKey.started,VolumeContinueKey.stopped,text.started,text.stopped,Music.started,Music.stopped,AdjustContinue.started,AdjustContinue.stopped,HeadphoneCheckBeing.started,HeadphoneCheckBeing.stopped,HeadphoneContinue.started,HeadphoneContinue.stopped,HeadphoneContinueKey.keys,HeadphoneContinueKey.rt,HeadphoneContinueKey.started,HeadphoneContinueKey.stopped,CheckSound.started,CheckSound.stopped,QuestionTxt.started,QuestionTxt.stopped,CheckTrial.started,CheckTrial.stopped,CrossHeadphone.started,CrossHeadphone.stopped,CheckResp.keys,CheckResp.corr,CheckResp.rt,CheckResp.started,CheckResp.stopped,FeedbackTxt.started,FeedbackTxt.stopped,WelcomeTxt1.started,WelcomeTxt1.stopped,ContinueKey1.started,ContinueKey1.stopped,ContinueResp.keys,ContinueResp.rt,ContinueResp.started,ContinueResp.stopped,Welcome2Txt.started,Welcome2Txt.stopped,Wel2ContinueKey.keys,Wel2ContinueKey.rt,Wel2ContinueKey.started,Wel2ContinueKey.stopped,Continue2.started,Continue2.stopped,InstructionTxt2.started,InstructionTxt2.stopped,WelcomeContinue2.started,WelcomeContinue2.stopped,WelcomeContinueKey2.keys,WelcomeContinueKey2.rt,WelcomeContinueKey2.started,WelcomeContinueKey2.stopped,TrialNumber.started,TrialNumber.stopped,PracticeSound.started,PracticeSound.stopped,PracticeCross.started,PracticeCross.stopped,Practice_resp.keys,Practice_resp.corr,Practice_resp.rt,Practice_resp.started,Practice_resp.stopped,PracticeMssg.started,PracticeMssg.stopped,FeedbackCross.started,FeedbackCross.stopped,Continue.started,Continue.stopped,Options.started,Options.stopped,FeedbackMssg.started,FeedbackMssg.stopped,StartTxt.started,StartTxt.stopped,StartTast.keys,StartTast.rt,StartTast.started,StartTast.stopped,ContinueStart.started,ContinueStart.stopped,no_3.started,no_3.stopped,TargetSound.started,TargetSound.stopped,Cross.started,Cross.stopped,ItemNumber.started,ItemNumber.stopped,MSTQuestion.started,MSTQuestion.stopped,MSTResp.keys,MSTResp.corr,MSTResp.rt,MSTResp.started,MSTResp.stopped,ThankyouMssg.started,ThankyouMssg.stopped,CompletionCode.started,CompletionCode.stopped,ExitTxt.started,ExitTxt.stopped,ExitKey.keys,ExitKey.rt,ExitKey.started,ExitKey.stopped,CodeTxt.started,CodeTxt.stopped,participant,session,date,expName,psychopyVersion,frameRate,
,,,,,,,,,,,,,,,,,57.12594820000231,None,57.12594820000231,None,58.1169901000103,None,space,0.4522964999778196,58.1169901000103,None,,,,,,,,,,,,,,,,,,,,,,,,,,,,,,,,,,,,,,,,,,,,,,,,,,,,,,,,,,,,,,,,,,,,,,,,,,,,,,,,,,,,,,,,,,,,,,,,,,,,,,,,,,,,,,,001,2021_Feb_21_0944,GuessTheSound,2020.2.10,60.068249547349424,
,,,,,,,,,,,,,,,,,,,,,,,,,,,58.66826440009754,None,58.663812649960164,None,58.66826440009754,None,59.11714240000583,None,59.11714240000583,None,space,0.5192132999654859,59.11714240000583,None,,,,,,,,,,,,,,,,,,,,,,,,,,,,,,,,,,,,,,,,,,,,,,,,,,,,,,,,,,,,,,,,,,,,,,,,,,,,,,,,,,,,,,,,,,,,,,,,,001,2021_Feb_21_0944,GuessTheSound,2020.2.10,60.068249547349424,
Headphone/t1_2.wav,1,,,,0,0,0,1,,,,,,,,,,,,,,,,,,,,,,,,,,,,,,,,,60.14774179982487,None,64.66334249998908,None,60.14468360005412,64.67993410001509,60.14468360005412,64.67993410001509,3,0,0.8825419000349939,64.66334249998908,None,65.5848299000645,None,,,,,,,,,,,,,,,,,,,,,,,,,,,,,,,,,,,,,,,,,,,,,,,,,,,,,,,,,,,,,,,,,,,,,,,,,,,,,,,,,,001,2021_Feb_21_0944,GuessTheSound,2020.2.10,60.068249547349424,
Headphone/t2_1.wav,2,,,,0,1,1,2,,,,,,,,,,,,,,,,,,,,,,,,,,,,,,,,,66.62976713007083,None,71.16305630002171,None,66.63815000001341,71.17975930008106,66.63815000001341,71.17975930008106,2,1,0.6086583000142127,71.16305630002171,None,71.80538959999103,None,,,,,,,,,,,,,,,,,,,,,,,,,,,,,,,,,,,,,,,,,,,,,,,,,,,,,,,,,,,,,,,,,,,,,,,,,,,,,,,,,,001,2021_Feb_21_0944,GuessTheSound,2020.2.10,60.068249547349424,
Headphone/t1_1.wav,1,,,,0,2,2,0,,,,,,,,,,,,,,,,,,,,,,,,,,,,,,,,,72.86295913998038,None,77.37961380009074,None,72.86294940009248,77.41309909999836,72.86294940009248,77.41309909999836,1,1,0.6105400999076664,77.37961380009074,None,78.01423140009865,None,,,,,,,,,,,,,,,,,,,,,,,,,,,,,,,,,,,,,,,,,,,,,,,,,,,,,,,,,,,,,,,,,,,,,,,,,,,,,,,,,,001,2021_Feb_21_0944,GuessTheSound,2020.2.10,60.068249547349424,
Headphone/t3_1.wav,3,,,,0,3,3,4,,,,,,,,,,,,,,,,,,,,,,,,,,,,,,,,,79.07953164004721,None,83.6129237000132,None,79.08118940005079,83.62952369998675,79.08118940005079,83.62952369998675,2,0,0.2794279999798164,83.6129237000132,None,83.93117620004341,None,,,,,,,,,,,,,,,,,,,,,,,,,,,,,,,,,,,,,,,,,,,,,,,,,,,,,,,,,,,,,,,,,,,,,,,,,,,,,,,,,,001,2021_Feb_21_0944,GuessTheSound,2020.2.10,60.068249547349424,
Headphone/t2_2.wav,2,,,,0,4,4,3,,,,,,,,,,,,,,,,,,,,,,,,,,,,,,,,,84.9793251400115,None,89.49660800001584,None,84.97535309998784,89.51271839998662,84.97535309998784,89.51271839998662,3,0,0.7268822999903932,89.49660800001584,None,90.24831350008026,None,,,,,,,,,,,,,,,,,,,,,,,,,,,,,,,,,,,,,,,,,,,,,,,,,,,,,,,,,,,,,,,,,,,,,,,,,,,,,,,,,,001,2021_Feb_21_0944,GuessTheSound,2020.2.10,60.068249547349424,
Headphone/t3_2.wav,3,,,,0,5,5,5,,,,,,,,,,,,,,,,,,,,,,,,,,,,,,,,,91.31257964007091,None,95.84634070005268,None,91.31910550000612,95.86296230007429,91.31910550000612,95.86296230007429,1,0,0.15396729996427894,95.84634070005268,None,96.02936270006467,None,,,,,,,,,,,,,,,,,,,,,,,,,,,,,,,,,,,,,,,,,,,,,,,,,,,,,,,,,,,,,,,,,,,,,,,,,,,,,,,,,,001,2021_Feb_21_0944,GuessTheSound,2020.2.10,60.068249547349424,
,,,,,,,,,,,,,,,,,,,,,,,,,,,,,,,,,,,,,,,,,,,,,,,,,,,,,,,,97.03020780009683,None,97.03020780009683,None,space,1.4747724999906495,97.03020780009683,None,,,,,,,,,,,,,,,,,,,,,,,,,,,,,,,,,,,,,,,,,,,,,,,,,,,,,,,,,,,,,,,,,,,,,,,,,,001,2021_Feb_21_0944,GuessTheSound,2020.2.10,60.068249547349424,
,,,,,,,,,,,,,,,,,,,,,,,,,,,,,,,,,,,,,,,,,,,,,,,,,,,,,,,,,,,,,,,,98.53381120006088,None,space,0.8585652000037953,98.53381120006088,None,,,,,,,,,,,,,,,,,,,,,,,,,,,,,,,,,,,,,,,,,,,,,,,,,,,,,,,,,,,,,,,,,,,,001,2021_Feb_21_0944,GuessTheSound,2020.2.10,60.068249547349424,
,,,,,,,,,,,,,,,,,,,,,,,,,,,,,,,,,,,,,,,,,,,,,,,,,,,,,,,,,,,,,,,,,,,,,,98.53381120006088,None,99.41813520004507,None,99.41813520004507,None,space,0.6729237999534234,99.41813520004507,None,,,,,,,,,,,,,,,,,,,,,,,,,,,,,,,,,,,,,,,,,,,,,,,,,,,,,,,,,,001,2021_Feb_21_0944,GuessTheSound,2020.2.10,60.068249547349424,
,2,Practice/Seagull_A.wav,3,NEW,,,,,0,0,0,0,,,,,,,,,,,,,,,,,,,,,,,,,,,,,,,,,,,,,,,,,,,,,,,,,,,,,,,,,,,,,,,,,,,,100.33457780000754,102.59585690009408,100.33276033995207,None,100.33457780000754,102.59585690009408,3,1,0.5721308999927714,102.64888520003296,None,102.64888520003296,None,102.64888520003296,None,102.64888520003296,None,102.64888520003296,None,103.25921240006573,None,,,,,,,,,,,,,,,,,,,,,,,,,,,,,,,,,,,,,001,2021_Feb_21_0944,GuessTheSound,2020.2.10,60.068249547349424,
,2,Practice/Skid_B.wav,3,NEW,,,,,0,1,1,1,,,,,,,,,,,,,,,,,,,,,,,,,,,,,,,,,,,,,,,,,,,,,,,,,,,,,,,,,,,,,,,,,,,,104.31474659999367,None,104.31265933997929,None,104.31474659999367,None,3,1,0.587349999928847,106.42941700003576,None,106.42941700003576,None,106.42941700003576,None,106.42941700003576,None,106.42941700003576,None,107.04788170009851,None,,,,,,,,,,,,,,,,,,,,,,,,,,,,,,,,,,,,,001,2021_Feb_21_0944,GuessTheSound,2020.2.10,60.068249547349424,
,1,Practice/Seagull_A.wav,1,OLD,,,,,0,2,2,2,,,,,,,,,,,,,,,,,,,,,,,,,,,,,,,,,,,,,,,,,,,,,,,,,,,,,,,,,,,,,,,,,,,,108.07906300004106,None,108.07905772002414,None,108.07906300004106,None,3,0,0.9917999000754207,110.37255600001663,None,110.37255600001663,None,110.37255600001663,None,110.37255600001663,None,110.37255600001663,None,111.39249070000369,None,,,,,,,,,,,,,,,,,,,,,,,,,,,,,,,,,,,,,001,2021_Feb_21_0944,GuessTheSound,2020.2.10,60.068249547349424,
,2,Practice/Gargle_A.wav,3,NEW,,,,,0,3,3,3,,,,,,,,,,,,,,,,,,,,,,,,,,,,,,,,,,,,,,,,,,,,,,,,,,,,,,,,,,,,,,,,,,,,112.45079810009338,None,112.44565583998337,None,112.45079810009338,None,3,1,0.5802785999840125,114.73518060008064,None,114.73518060008064,None,114.73518060008064,None,114.73518060008064,None,114.73518060008064,None,115.3541226000525,None,,,,,,,,,,,,,,,,,,,,,,,,,,,,,,,,,,,,,001,2021_Feb_21_0944,GuessTheSound,2020.2.10,60.068249547349424,
,2,Practice/Gargle_B.wav,2,SIMILAR,,,,,0,4,4,4,,,,,,,,,,,,,,,,,,,,,,,,,,,,,,,,,,,,,,,,,,,,,,,,,,,,,,,,,,,,,,,,,,,,116.4173367000185,118.4621551000746,116.41265534004197,None,116.4173367000185,118.4621551000746,2,1,0.6898407000117004,118.51166950003244,None,118.51166950003244,None,118.51166950003244,None,118.51166950003244,None,118.51166950003244,None,119.23047569999471,None,,,,,,,,,,,,,,,,,,,,,,,,,,,,,,,,,,,,,001,2021_Feb_21_0944,GuessTheSound,2020.2.10,60.068249547349424,
,,,,,,,,,,,,,,,,,,,,,,,,,,,,,,,,,,,,,,,,,,,,,,,,,,,,,,,,,,,,,,,,,,,,,,,,,,,,,,,,,,,,,,,,,,,,,,,,,,,,,120.2463693000609,None,space,1.4023621000815183,120.2463693000609,None,,,,,,,,,,,,,,,,,,,,,,,,,,,,,,,001,2021_Feb_21_0944,GuessTheSound,2020.2.10,60.068249547349424,
,2,Elephant_C.wav,3,NEW,,,,,,,,,0,0,0,0,,,,,,,,,,,,,,,,,,,,,,,,,,,,,,,,,,,,,,,,,,,,,,,,,,,,,,,,,,,,,,,,,,,,,,,,,,,,,,,,,,,,,,,,,,,120.2463693000609,None,121.8424406000413,None,123.24601853999775,None,123.24366360006388,None,123.24366360006388,None,126.11580610007513,None,3,1,1.202229000045918,126.11580610007513,None,,,,,,,,,,,,,,001,2021_Feb_21_0944,GuessTheSound,2020.2.10,60.068249547349424,
,2,Initial/NoRepeat/Thunder_A.wav,3,NEW,,,,,,,,,0,1,1,1,,,,,,,,,,,,,,,,,,,,,,,,,,,,,,,,,,,,,,,,,,,,,,,,,,,,,,,,,,,,,,,,,,,,,,,,,,,,,,,,,,,,,,,,,,,,,127.3468501000898,None,128.91268564999336,None,128.9099757000804,None,128.9099757000804,None,131.7798666000599,None,3,1,0.3937337000388652,131.7798666000599,None,,,,,,,,,,,,,,001,2021_Feb_21_0944,GuessTheSound,2020.2.10,60.068249547349424,
,2,Test/Lures/Chime_B.wav,3,NEW,,,,,,,,,0,2,2,2,,,,,,,,,,,,,,,,,,,,,,,,,,,,,,,,,,,,,,,,,,,,,,,,,,,,,,,,,,,,,,,,,,,,,,,,,,,,,,,,,,,,,,,,,,,,,132.197506000055,None,133.76190684002358,None,133.76002859999426,None,133.76002859999426,None,136.57985219999682,None,3,1,0.5013530999422073,136.57985219999682,None,,,,,,,,,,,,,,001,2021_Feb_21_0944,GuessTheSound,2020.2.10,60.068249547349424,
,2,Initial/NoRepeat/Toilet_B.wav,3,NEW,,,,,,,,,0,3,3,3,,,,,,,,,,,,,,,,,,,,,,,,,,,,,,,,,,,,,,,,,,,,,,,,,,,,,,,,,,,,,,,,,,,,,,,,,,,,,,,,,,,,,,,,,,,,,137.11342350009363,None,138.712078260025,None,138.7117833000375,None,138.7117833000375,None,141.5796569000231,None,3,1,0.28556629992090166,141.5796569000231,None,,,,,,,,,,,,,,001,2021_Feb_21_0944,GuessTheSound,2020.2.10,60.068249547349424,
,2,Test/Foils/Typing.wav,3,NEW,,,,,,,,,0,4,4,4,,,,,,,,,,,,,,,,,,,,,,,,,,,,,,,,,,,,,,,,,,,,,,,,,,,,,,,,,,,,,,,,,,,,,,,,,,,,,,,,,,,,,,,,,,,,,141.89526380004827,None,143.4454493400408,None,143.44938830006868,None,143.44938830006868,None,146.3127528000623,None,3,1,0.29011169995646924,146.3127528000623,None,,,,,,,,,,,,,,001,2021_Feb_21_0944,GuessTheSound,2020.2.10,60.068249547349424,
,2,Initial/Repeat/Pour.wav,3,NEW,,,,,,,,,0,5,5,5,,,,,,,,,,,,,,,,,,,,,,,,,,,,,,,,,,,,,,,,,,,,,,,,,,,,,,,,,,,,,,,,,,,,,,,,,,,,,,,,,,,,,,,,,,,,,146.62717880005948,None,148.17875714006368,None,148.18093480006792,None,148.18093480006792,None,150.74624810006935,None,3,1,0.3454158999957144,150.74624810006935,None,,,,,,,,,,,,,,001,2021_Feb_21_0944,GuessTheSound,2020.2.10,60.068249547349424,
,2,Initial/NoRepeat/Sleighbells_B.wav,3,NEW,,,,,,,,,0,6,6,6,,,,,,,,,,,,,,,,,,,,,,,,,,,,,,,,,,,,,,,,,,,,,,,,,,,,,,,,,,,,,,,,,,,,,,,,,,,,,,,,,,,,,,,,,,,,,151.11310220009182,None,152.6622381400084,None,152.66843299998436,None,152.66843299998436,None,155.09618600003887,None,3,1,0.5626364999916404,155.09618600003887,None,,,,,,,,,,,,,,001,2021_Feb_21_0944,GuessTheSound,2020.2.10,60.068249547349424,
,2,Initial/Repeat/Buzz.wav,3,NEW,,,,,,,,,0,7,7,7,,,,,,,,,,,,,,,,,,,,,,,,,,,,,,,,,,,,,,,,,,,,,,,,,,,,,,,,,,,,,,,,,,,,,,,,,,,,,,,,,,,,,,,,,,,,,155.679843800026,None,157.245227240026,None,157.2468164000893,None,157.2468164000893,None,159.54595330008306,None,3,1,0.2311986000277102,159.54595330008306,None,,,,,,,,,,,,,,001,2021_Feb_21_0944,GuessTheSound,2020.2.10,60.068249547349424,
,2,Baby_F.wav,3,NEW,,,,,,,,,0,8,8,8,,,,,,,,,,,,,,,,,,,,,,,,,,,,,,,,,,,,,,,,,,,,,,,,,,,,,,,,,,,,,,,,,,,,,,,,,,,,,,,,,,,,,,,,,,,,,159.79644910001662,None,161.36215534002986,None,161.364744600025,None,161.364744600025,None,163.5124541000696,None,3,1,0.3934005000628531,163.5124541000696,None,,,,,,,,,,,,,,001,2021_Feb_21_0944,GuessTheSound,2020.2.10,60.068249547349424,
,1,Initial/NoRepeat/Thunder_A.wav,1,OLD,,,,,,,,,0,9,9,9,,,,,,,,,,,,,,,,,,,,,,,,,,,,,,,,,,,,,,,,,,,,,,,,,,,,,,,,,,,,,,,,,,,,,,,,,,,,,,,,,,,,,,,,,,,,,163.93058460007887,None,165.4618250200292,None,165.46729330008384,None,165.46729330008384,None,168.3458615000127,None,1,1,0.2582643999485299,168.3458615000127,None,,,,,,,,,,,,,,001,2021_Feb_21_0944,GuessTheSound,2020.2.10,60.068249547349424,
,2,Initial/NoRepeat/Mosquito_B.wav,3,NEW,,,,,,,,,0,10,10,10,,,,,,,,,,,,,,,,,,,,,,,,,,,,,,,,,,,,,,,,,,,,,,,,,,,,,,,,,,,,,,,,,,,,,,,,,,,,,,,,,,,,,,,,,,,,,168.63052910007536,None,170.17836863006232,None,170.18665739998687,None,170.18665739998687,None,172.3293995000422,None,3,1,0.3586157000390813,172.3293995000422,None,,,,,,,,,,,,,,001,2021_Feb_21_0944,GuessTheSound,2020.2.10,60.068249547349424,
,2,Test/Foils/DialTone.wav,3,NEW,,,,,,,,,0,11,11,11,,,,,,,,,,,,,,,,,,,,,,,,,,,,,,,,,,,,,,,,,,,,,,,,,,,,,,,,,,,,,,,,,,,,,,,,,,,,,,,,,,,,,,,,,,,,,172.71375950006768,None,174.27845024003182,None,174.28004480001982,None,174.28004480001982,None,176.7959004000295,None,3,1,0.35289790004026145,176.7959004000295,None,,,,,,,,,,,,,,001,2021_Feb_21_0944,GuessTheSound,2020.2.10,60.068249547349424,
,2,Elephant_D.wav,2,SIMILAR,,,,,,,,,0,12,12,12,,,,,,,,,,,,,,,,,,,,,,,,,,,,,,,,,,,,,,,,,,,,,,,,,,,,,,,,,,,,,,,,,,,,,,,,,,,,,,,,,,,,,,,,,,,,,177.1813986999914,None,178.72867913002847,None,178.7342257000273,None,178.7342257000273,None,181.61237680003978,None,1,0,0.906623600050807,181.61237680003978,None,,,,,,,,,,,,,,001,2021_Feb_21_0944,GuessTheSound,2020.2.10,60.068249547349424,
,2,Initial/Doubled/Writing_A.wav,3,NEW,,,,,,,,,0,13,13,13,,,,,,,,,,,,,,,,,,,,,,,,,,,,,,,,,,,,,,,,,,,,,,,,,,,,,,,,,,,,,,,,,,,,,,,,,,,,,,,,,,,,,,,,,,,,,182.54576310003176,None,184.09515023999847,None,184.09447250002995,None,184.09447250002995,None,186.79577600001357,None,3,1,0.31100070010870695,186.79577600001357,None,,,,,,,,,,,,,,001,2021_Feb_21_0944,GuessTheSound,2020.2.10,60.068249547349424,
,2,Initial/NoRepeat/Faucet_A.wav,3,NEW,,,,,,,,,0,14,14,14,,,,,,,,,,,,,,,,,,,,,,,,,,,,,,,,,,,,,,,,,,,,,,,,,,,,,,,,,,,,,,,,,,,,,,,,,,,,,,,,,,,,,,,,,,,,,187.12966340000276,None,188.69497804006096,None,188.702904600068,None,188.702904600068,None,191.17909430002328,None,3,1,0.6336485000792891,191.17909430002328,None,,,,,,,,,,,,,,001,2021_Feb_21_0944,GuessTheSound,2020.2.10,60.068249547349424,
,1,Test/Foils/Typing.wav,1,OLD,,,,,,,,,0,15,15,15,,,,,,,,,,,,,,,,,,,,,,,,,,,,,,,,,,,,,,,,,,,,,,,,,,,,,,,,,,,,,,,,,,,,,,,,,,,,,,,,,,,,,,,,,,,,,191.83038510009646,None,193.36218161997385,None,193.35947940009646,None,193.35947940009646,None,196.22916019998956,None,1,1,0.6457184000173584,196.22916019998956,None,,,,,,,,,,,,,,001,2021_Feb_21_0944,GuessTheSound,2020.2.10,60.068249547349424,
,1,Initial/NoRepeat/Sleighbells_B.wav,1,OLD,,,,,,,,,0,16,16,16,,,,,,,,,,,,,,,,,,,,,,,,,,,,,,,,,,,,,,,,,,,,,,,,,,,,,,,,,,,,,,,,,,,,,,,,,,,,,,,,,,,,,,,,,,,,,196.89630410005338,None,198.4281854199944,None,198.42414680006914,None,198.42414680006914,None,200.8454887000844,None,1,1,0.31970849994104356,200.8454887000844,None,,,,,,,,,,,,,,001,2021_Feb_21_0944,GuessTheSound,2020.2.10,60.068249547349424,
,2,Test/Foils/Wind_B.wav,3,NEW,,,,,,,,,0,17,17,17,,,,,,,,,,,,,,,,,,,,,,,,,,,,,,,,,,,,,,,,,,,,,,,,,,,,,,,,,,,,,,,,,,,,,,,,,,,,,,,,,,,,,,,,,,,,,201.19493680004962,None,202.7616946499911,None,202.76209890004247,None,202.76209890004247,None,205.49559180007782,None,3,1,0.3335361999925226,205.49559180007782,None,,,,,,,,,,,,,,001,2021_Feb_21_0944,GuessTheSound,2020.2.10,60.068249547349424,
,1,Initial/NoRepeat/Toilet_B.wav,1,OLD,,,,,,,,,0,18,18,18,,,,,,,,,,,,,,,,,,,,,,,,,,,,,,,,,,,,,,,,,,,,,,,,,,,,,,,,,,,,,,,,,,,,,,,,,,,,,,,,,,,,,,,,,,,,,205.84827680001035,None,207.3782049199799,None,207.37468210002407,None,207.37468210002407,None,210.24563600006513,None,1,1,0.28704079997260123,210.24563600006513,None,,,,,,,,,,,,,,001,2021_Feb_21_0944,GuessTheSound,2020.2.10,60.068249547349424,
,2,Pour_C.wav,2,SIMILAR,,,,,,,,,0,19,19,19,,,,,,,,,,,,,,,,,,,,,,,,,,,,,,,,,,,,,,,,,,,,,,,,,,,,,,,,,,,,,,,,,,,,,,,,,,,,,,,,,,,,,,,,,,,,,210.56132320000324,None,212.11140844004694,None,212.1215433999896,None,212.1215433999896,None,214.99547480000183,None,1,0,0.4417583999456838,214.99547480000183,None,,,,,,,,,,,,,,001,2021_Feb_21_0944,GuessTheSound,2020.2.10,60.068249547349424,
,2,Initial/Doubled/Chime_A.wav,2,SIMILAR,,,,,,,,,0,20,20,20,,,,,,,,,,,,,,,,,,,,,,,,,,,,,,,,,,,,,,,,,,,,,,,,,,,,,,,,,,,,,,,,,,,,,,,,,,,,,,,,,,,,,,,,,,,,,215.46270790009294,None,217.02800934005063,None,217.02829390007537,None,217.02829390007537,None,219.8620019000955,None,2,1,0.3174437000416219,219.8620019000955,None,,,,,,,,,,,,,,001,2021_Feb_21_0944,GuessTheSound,2020.2.10,60.068249547349424,
,1,Initial/Repeat/Buzz.wav,1,OLD,,,,,,,,,0,21,21,21,,,,,,,,,,,,,,,,,,,,,,,,,,,,,,,,,,,,,,,,,,,,,,,,,,,,,,,,,,,,,,,,,,,,,,,,,,,,,,,,,,,,,,,,,,,,,220.19528189999983,None,221.7115293199895,None,221.70591970009264,None,221.70591970009264,None,224.01205740007572,None,1,1,0.44302670005708933,224.01205740007572,None,,,,,,,,,,,,,,001,2021_Feb_21_0944,GuessTheSound,2020.2.10,60.068249547349424,
,2,Writing_C.wav,2,SIMILAR,,,,,,,,,0,22,22,22,,,,,,,,,,,,,,,,,,,,,,,,,,,,,,,,,,,,,,,,,,,,,,,,,,,,,,,,,,,,,,,,,,,,,,,,,,,,,,,,,,,,,,,,,,,,,224.4778176000109,None,226.02787164004985,None,226.0263006000314,None,226.0263006000314,None,228.7453706000233,None,2,1,1.7208468000171706,228.7453706000233,None,,,,,,,,,,,,,,001,2021_Feb_21_0944,GuessTheSound,2020.2.10,60.068249547349424,
,1,Initial/NoRepeat/Mosquito_B.wav,1,OLD,,,,,,,,,0,23,23,23,,,,,,,,,,,,,,,,,,,,,,,,,,,,,,,,,,,,,,,,,,,,,,,,,,,,,,,,,,,,,,,,,,,,,,,,,,,,,,,,,,,,,,,,,,,,,230.49590630002785,None,232.01101031008875,None,232.02136560005601,None,232.02136560005601,None,234.16201040009037,None,1,1,0.7625474999658763,234.16201040009037,None,,,,,,,,,,,,,,001,2021_Feb_21_0944,GuessTheSound,2020.2.10,60.068249547349424,
,2,Initial/Doubled/Cough_A.wav,3,NEW,,,,,,,,,0,24,24,24,,,,,,,,,,,,,,,,,,,,,,,,,,,,,,,,,,,,,,,,,,,,,,,,,,,,,,,,,,,,,,,,,,,,,,,,,,,,,,,,,,,,,,,,,,,,,234.94576250005048,None,236.5111673399806,None,236.5102726999903,None,236.5102726999903,None,238.2117908000946,None,3,1,0.44344329996965826,238.2117908000946,None,,,,,,,,,,,,,,001,2021_Feb_21_0944,GuessTheSound,2020.2.10,60.068249547349424,
,1,Test/Foils/DialTone.wav,1,OLD,,,,,,,,,0,25,25,25,,,,,,,,,,,,,,,,,,,,,,,,,,,,,,,,,,,,,,,,,,,,,,,,,,,,,,,,,,,,,,,,,,,,,,,,,,,,,,,,,,,,,,,,,,,,,238.68113160005305,None,240.1955679100356,None,240.20756550005171,None,240.20756550005171,None,242.71188280009665,None,1,1,0.37112929997965693,242.71188280009665,None,,,,,,,,,,,,,,001,2021_Feb_21_0944,GuessTheSound,2020.2.10,60.068249547349424,
,2,Initial/NoRepeat/Puff_A.wav,3,NEW,,,,,,,,,0,26,26,26,,,,,,,,,,,,,,,,,,,,,,,,,,,,,,,,,,,,,,,,,,,,,,,,,,,,,,,,,,,,,,,,,,,,,,,,,,,,,,,,,,,,,,,,,,,,,243.1109279000666,None,244.66121263999958,None,244.66845400002785,None,244.66845400002785,None,246.36191560002044,None,3,1,0.7313002999871969,246.36191560002044,None,,,,,,,,,,,,,,001,2021_Feb_21_0944,GuessTheSound,2020.2.10,60.068249547349424,
,2,Test/Foils/Heartbeat.wav,3,NEW,,,,,,,,,0,27,27,27,,,,,,,,,,,,,,,,,,,,,,,,,,,,,,,,,,,,,,,,,,,,,,,,,,,,,,,,,,,,,,,,,,,,,,,,,,,,,,,,,,,,,,,,,,,,,247.11629090004135,None,248.67765304003842,None,248.6808161000954,None,248.6808161000954,None,251.09521609998774,None,3,1,0.6538944999920204,251.09521609998774,None,,,,,,,,,,,,,,001,2021_Feb_21_0944,GuessTheSound,2020.2.10,60.068249547349424,
,2,Initial/Repeat/IceDrop.wav,3,NEW,,,,,,,,,0,28,28,28,,,,,,,,,,,,,,,,,,,,,,,,,,,,,,,,,,,,,,,,,,,,,,,,,,,,,,,,,,,,,,,,,,,,,,,,,,,,,,,,,,,,,,,,,,,,,251.7775060000131,None,253.32754434004892,None,253.3383284000447,None,253.3383284000447,None,256.0949495000532,None,3,1,0.31430170009844005,256.0949495000532,None,,,,,,,,,,,,,,001,2021_Feb_21_0944,GuessTheSound,2020.2.10,60.068249547349424,
,2,Bird_D.wav,3,NEW,,,,,,,,,0,29,29,29,,,,,,,,,,,,,,,,,,,,,,,,,,,,,,,,,,,,,,,,,,,,,,,,,,,,,,,,,,,,,,,,,,,,,,,,,,,,,,,,,,,,,,,,,,,,,256.42850660008844,None,257.97756824002136,None,257.9738435000181,None,257.9738435000181,None,259.3116534000728,None,3,1,0.41080349998082966,259.3116534000728,None,,,,,,,,,,,,,,001,2021_Feb_21_0944,GuessTheSound,2020.2.10,60.068249547349424,
,2,Baby_E.wav,2,SIMILAR,,,,,,,,,0,30,30,30,,,,,,,,,,,,,,,,,,,,,,,,,,,,,,,,,,,,,,,,,,,,,,,,,,,,,,,,,,,,,,,,,,,,,,,,,,,,,,,,,,,,,,,,,,,,,259.7442270000465,None,261.2777392300195,None,261.28197100001853,None,261.28197100001853,None,263.5949596000137,None,2,1,0.8859841000521556,263.5949596000137,None,,,,,,,,,,,,,,001,2021_Feb_21_0944,GuessTheSound,2020.2.10,60.068249547349424,
,2,Faucet_B.wav,2,SIMILAR,,,,,,,,,0,31,31,31,,,,,,,,,,,,,,,,,,,,,,,,,,,,,,,,,,,,,,,,,,,,,,,,,,,,,,,,,,,,,,,,,,,,,,,,,,,,,,,,,,,,,,,,,,,,,264.5179601000855,None,266.1107706599869,None,266.1070483000949,None,266.1070483000949,None,268.89315570006147,None,1,0,1.5435785000445321,268.89315570006147,None,,,,,,,,,,,,,,001,2021_Feb_21_0944,GuessTheSound,2020.2.10,60.068249547349424,
,2,Initial/NoRepeat/Duck_A.wav,3,NEW,,,,,,,,,0,32,32,32,,,,,,,,,,,,,,,,,,,,,,,,,,,,,,,,,,,,,,,,,,,,,,,,,,,,,,,,,,,,,,,,,,,,,,,,,,,,,,,,,,,,,,,,,,,,,270.4618843999924,None,272.02650584001094,None,272.0368904999923,None,272.0368904999923,None,274.1450793000404,None,3,1,0.4186417000601068,274.1450793000404,None,,,,,,,,,,,,,,001,2021_Feb_21_0944,GuessTheSound,2020.2.10,60.068249547349424,
,2,Initial/Doubled/Laugh_A.wav,3,NEW,,,,,,,,,0,33,33,33,,,,,,,,,,,,,,,,,,,,,,,,,,,,,,,,,,,,,,,,,,,,,,,,,,,,,,,,,,,,,,,,,,,,,,,,,,,,,,,,,,,,,,,,,,,,,274.5833163000643,None,276.1441332399845,None,276.14980550005566,None,276.14980550005566,None,278.8448100000387,None,3,1,0.37078480003401637,278.8448100000387,None,,,,,,,,,,,,,,001,2021_Feb_21_0944,GuessTheSound,2020.2.10,60.068249547349424,
,1,Test/Foils/Wind_B.wav,1,OLD,,,,,,,,,0,34,34,34,,,,,,,,,,,,,,,,,,,,,,,,,,,,,,,,,,,,,,,,,,,,,,,,,,,,,,,,,,,,,,,,,,,,,,,,,,,,,,,,,,,,,,,,,,,,,279.24438420007937,None,280.7608146200655,None,280.7590339999879,None,280.7590339999879,None,283.49474880006164,None,1,1,0.2685676999390125,283.49474880006164,None,,,,,,,,,,,,,,001,2021_Feb_21_0944,GuessTheSound,2020.2.10,60.068249547349424,
,2,Initial/Doubled/Chicken_A.wav,3,NEW,,,,,,,,,0,35,35,35,,,,,,,,,,,,,,,,,,,,,,,,,,,,,,,,,,,,,,,,,,,,,,,,,,,,,,,,,,,,,,,,,,,,,,,,,,,,,,,,,,,,,,,,,,,,,283.79381880001165,None,285.34415423998144,None,285.34314530005213,None,285.34314530005213,None,287.02790400001686,None,3,1,0.4150429000146687,287.02790400001686,None,,,,,,,,,,,,,,001,2021_Feb_21_0944,GuessTheSound,2020.2.10,60.068249547349424,
,2,Test/Lures/Guitar_B.wav,3,NEW,,,,,,,,,0,36,36,36,,,,,,,,,,,,,,,,,,,,,,,,,,,,,,,,,,,,,,,,,,,,,,,,,,,,,,,,,,,,,,,,,,,,,,,,,,,,,,,,,,,,,,,,,,,,,287.46480690001044,None,289.02726284007076,None,289.02476280007977,None,289.02476280007977,None,291.3447497000452,None,3,1,0.5446702000917867,291.3447497000452,None,,,,,,,,,,,,,,001,2021_Feb_21_0944,GuessTheSound,2020.2.10,60.068249547349424,
,2,Initial/Repeat/Cello.wav,3,NEW,,,,,,,,,0,37,37,37,,,,,,,,,,,,,,,,,,,,,,,,,,,,,,,,,,,,,,,,,,,,,,,,,,,,,,,,,,,,,,,,,,,,,,,,,,,,,,,,,,,,,,,,,,,,,291.9131277000997,None,293.4771885400405,None,293.4797256999882,None,293.4797256999882,None,296.34464640007354,None,3,1,2.4224698999896646,296.34464640007354,None,,,,,,,,,,,,,,001,2021_Feb_21_0944,GuessTheSound,2020.2.10,60.068249547349424,
,1,Test/Foils/Heartbeat.wav,1,OLD,,,,,,,,,0,38,38,38,,,,,,,,,,,,,,,,,,,,,,,,,,,,,,,,,,,,,,,,,,,,,,,,,,,,,,,,,,,,,,,,,,,,,,,,,,,,,,,,,,,,,,,,,,,,,298.79381750000175,None,300.310622220044,None,300.3063010000624,None,300.3063010000624,None,302.72794920008164,None,1,1,2.1374639000277966,302.72794920008164,None,,,,,,,,,,,,,,001,2021_Feb_21_0944,GuessTheSound,2020.2.10,60.068249547349424,
,2,Initial/Repeat/Airplane_B.wav,3,NEW,,,,,,,,,0,39,39,39,,,,,,,,,,,,,,,,,,,,,,,,,,,,,,,,,,,,,,,,,,,,,,,,,,,,,,,,,,,,,,,,,,,,,,,,,,,,,,,,,,,,,,,,,,,,,304.89347090001684,None,306.4439130399842,None,306.4429725999944,None,306.4429725999944,None,309.06120210001245,None,3,1,1.1181584999430925,309.06120210001245,None,,,,,,,,,,,,,,001,2021_Feb_21_0944,GuessTheSound,2020.2.10,60.068249547349424,
,2,Cough_E.wav,2,SIMILAR,,,,,,,,,0,40,40,40,,,,,,,,,,,,,,,,,,,,,,,,,,,,,,,,,,,,,,,,,,,,,,,,,,,,,,,,,,,,,,,,,,,,,,,,,,,,,,,,,,,,,,,,,,,,,310.19837620004546,None,311.76022153999656,None,311.7632502000779,None,311.7632502000779,None,313.5109935000073,None,3,0,0.43091619992628694,313.5109935000073,None,,,,,,,,,,,,,,001,2021_Feb_21_0944,GuessTheSound,2020.2.10,60.068249547349424,
,2,Initial/Repeat/Trumpet_B.wav,3,NEW,,,,,,,,,0,41,41,41,,,,,,,,,,,,,,,,,,,,,,,,,,,,,,,,,,,,,,,,,,,,,,,,,,,,,,,,,,,,,,,,,,,,,,,,,,,,,,,,,,,,,,,,,,,,,313.9625540000852,None,315.5269563400652,None,315.5296392000746,None,315.5296392000746,None,317.82783460000064,None,3,1,0.9037987000774592,317.82783460000064,None,,,,,,,,,,,,,,001,2021_Feb_21_0944,GuessTheSound,2020.2.10,60.068249547349424,
,1,Initial/Repeat/IceDrop.wav,1,OLD,,,,,,,,,0,42,42,42,,,,,,,,,,,,,,,,,,,,,,,,,,,,,,,,,,,,,,,,,,,,,,,,,,,,,,,,,,,,,,,,,,,,,,,,,,,,,,,,,,,,,,,,,,,,,318.7616325999843,None,320.29376282007433,None,320.29001420002896,None,320.29001420002896,None,323.0444860000862,None,3,0,0.3326851000310853,323.0444860000862,None,,,,,,,,,,,,,,001,2021_Feb_21_0944,GuessTheSound,2020.2.10,60.068249547349424,
,2,Initial/Repeat/Sneeze_B.wav,3,NEW,,,,,,,,,0,43,43,43,,,,,,,,,,,,,,,,,,,,,,,,,,,,,,,,,,,,,,,,,,,,,,,,,,,,,,,,,,,,,,,,,,,,,,,,,,,,,,,,,,,,,,,,,,,,,323.39714770007413,None,324.9602138400078,None,324.9567065000301,None,324.9567065000301,None,326.19448450009804,None,3,1,0.5450934999389574,326.19448450009804,None,,,,,,,,,,,,,,001,2021_Feb_21_0944,GuessTheSound,2020.2.10,60.068249547349424,
,1,Initial/NoRepeat/Puff_A.wav,1,OLD,,,,,,,,,0,44,44,44,,,,,,,,,,,,,,,,,,,,,,,,,,,,,,,,,,,,,,,,,,,,,,,,,,,,,,,,,,,,,,,,,,,,,,,,,,,,,,,,,,,,,,,,,,,,,326.7605021999916,None,328.2600666100043,None,328.2725244000321,None,328.2725244000321,None,329.9777177000651,None,3,0,0.3488621999276802,329.9777177000651,None,,,,,,,,,,,,,,001,2021_Feb_21_0944,GuessTheSound,2020.2.10,60.068249547349424,
,2,Chick_A.wav,2,SIMILAR,,,,,,,,,0,45,45,45,,,,,,,,,,,,,,,,,,,,,,,,,,,,,,,,,,,,,,,,,,,,,,,,,,,,,,,,,,,,,,,,,,,,,,,,,,,,,,,,,,,,,,,,,,,,,330.3430033000186,None,331.87652623007307,None,331.8787040000316,None,331.8787040000316,None,333.59373180009425,None,2,1,0.7223818000638857,333.59373180009425,None,,,,,,,,,,,,,,001,2021_Feb_21_0944,GuessTheSound,2020.2.10,60.068249547349424,
,2,Snore_A.wav,3,NEW,,,,,,,,,0,46,46,46,,,,,,,,,,,,,,,,,,,,,,,,,,,,,,,,,,,,,,,,,,,,,,,,,,,,,,,,,,,,,,,,,,,,,,,,,,,,,,,,,,,,,,,,,,,,,334.34284450009,None,335.8766423300258,None,335.8866380000254,None,335.8866380000254,None,338.6443473000545,None,3,1,0.2550189000321552,338.6443473000545,None,,,,,,,,,,,,,,001,2021_Feb_21_0944,GuessTheSound,2020.2.10,60.068249547349424,
,1,Test/Lures/Guitar_B.wav,1,OLD,,,,,,,,,0,47,47,47,,,,,,,,,,,,,,,,,,,,,,,,,,,,,,,,,,,,,,,,,,,,,,,,,,,,,,,,,,,,,,,,,,,,,,,,,,,,,,,,,,,,,,,,,,,,,338.9265837999992,None,340.4433478200808,None,340.44460430007894,None,340.44460430007894,None,342.77795610006433,None,3,0,0.11681979999411851,342.77795610006433,None,,,,,,,,,,,,,,001,2021_Feb_21_0944,GuessTheSound,2020.2.10,60.068249547349424,
,2,Initial/Doubled/Cat_A.wav,3,NEW,,,,,,,,,0,48,48,48,,,,,,,,,,,,,,,,,,,,,,,,,,,,,,,,,,,,,,,,,,,,,,,,,,,,,,,,,,,,,,,,,,,,,,,,,,,,,,,,,,,,,,,,,,,,,342.91255790006835,None,344.45984393003164,None,344.4684999000747,None,344.4684999000747,None,345.8939986000769,None,3,1,0.4637936999788508,345.8939986000769,None,,,,,,,,,,,,,,001,2021_Feb_21_0944,GuessTheSound,2020.2.10,60.068249547349424,
,2,Initial/Repeat/Whistle_A.wav,3,NEW,,,,,,,,,0,49,49,49,,,,,,,,,,,,,,,,,,,,,,,,,,,,,,,,,,,,,,,,,,,,,,,,,,,,,,,,,,,,,,,,,,,,,,,,,,,,,,,,,,,,,,,,,,,,,346.3832435000222,None,347.9268458299921,None,347.93825300002936,None,347.93825300002936,None,349.4273901000852,None,3,1,0.5528278999263421,349.4273901000852,None,,,,,,,,,,,,,,001,2021_Feb_21_0944,GuessTheSound,2020.2.10,60.068249547349424,
,2,Duck_B.wav,2,SIMILAR,,,,,,,,,0,50,50,50,,,,,,,,,,,,,,,,,,,,,,,,,,,,,,,,,,,,,,,,,,,,,,,,,,,,,,,,,,,,,,,,,,,,,,,,,,,,,,,,,,,,,,,,,,,,,350.0097418000223,None,351.55991024000105,None,351.5601617000066,None,351.5601617000066,None,353.2776229000883,None,2,1,1.130293200025335,353.2776229000883,None,,,,,,,,,,,,,,001,2021_Feb_21_0944,GuessTheSound,2020.2.10,60.068249547349424,
,2,Laugh_D.wav,2,SIMILAR,,,,,,,,,0,51,51,51,,,,,,,,,,,,,,,,,,,,,,,,,,,,,,,,,,,,,,,,,,,,,,,,,,,,,,,,,,,,,,,,,,,,,,,,,,,,,,,,,,,,,,,,,,,,,354.4283742000116,None,355.99348894006107,None,355.995824099984,None,355.995824099984,None,358.865475300001,None,2,1,0.3478242999408394,358.865475300001,None,,,,,,,,,,,,,,001,2021_Feb_21_0944,GuessTheSound,2020.2.10,60.068249547349424,
,1,Initial/Doubled/Chicken_A.wav,1,OLD,,,,,,,,,0,52,52,52,,,,,,,,,,,,,,,,,,,,,,,,,,,,,,,,,,,,,,,,,,,,,,,,,,,,,,,,,,,,,,,,,,,,,,,,,,,,,,,,,,,,,,,,,,,,,359.244986900012,None,360.75970401003724,None,360.7672791000223,None,360.7672791000223,None,362.4439470000798,None,1,1,0.36166499997489154,362.4439470000798,None,,,,,,,,,,,,,,001,2021_Feb_21_0944,GuessTheSound,2020.2.10,60.068249547349424,
,1,Initial/Repeat/Cello.wav,1,OLD,,,,,,,,,0,53,53,53,,,,,,,,,,,,,,,,,,,,,,,,,,,,,,,,,,,,,,,,,,,,,,,,,,,,,,,,,,,,,,,,,,,,,,,,,,,,,,,,,,,,,,,,,,,,,362.8268647000659,None,364.3428114199778,None,364.34723880002275,None,364.34723880002275,None,367.2103658000706,None,1,1,0.37197169999126345,367.2103658000706,None,,,,,,,,,,,,,,001,2021_Feb_21_0944,GuessTheSound,2020.2.10,60.068249547349424,
,2,Test/Foils/Slurp.wav,3,NEW,,,,,,,,,0,54,54,54,,,,,,,,,,,,,,,,,,,,,,,,,,,,,,,,,,,,,,,,,,,,,,,,,,,,,,,,,,,,,,,,,,,,,,,,,,,,,,,,,,,,,,,,,,,,,367.6106616000179,None,369.1597179400269,None,369.162052800064,None,369.162052800064,None,371.5437977000838,None,3,1,0.38755749992560595,371.5437977000838,None,,,,,,,,,,,,,,001,2021_Feb_21_0944,GuessTheSound,2020.2.10,60.068249547349424,
,2,Initial/Doubled/Chomp_A.wav,3,NEW,,,,,,,,,0,55,55,55,,,,,,,,,,,,,,,,,,,,,,,,,,,,,,,,,,,,,,,,,,,,,,,,,,,,,,,,,,,,,,,,,,,,,,,,,,,,,,,,,,,,,,,,,,,,,371.95965299999807,None,373.5097063400317,None,373.50900920003187,None,373.50900920003187,None,376.1938145000022,None,3,1,0.6032105999765918,376.1938145000022,None,,,,,,,,,,,,,,001,2021_Feb_21_0944,GuessTheSound,2020.2.10,60.068249547349424,
,1,Initial/Repeat/Airplane_B.wav,1,OLD,,,,,,,,,0,56,56,56,,,,,,,,,,,,,,,,,,,,,,,,,,,,,,,,,,,,,,,,,,,,,,,,,,,,,,,,,,,,,,,,,,,,,,,,,,,,,,,,,,,,,,,,,,,,,376.8262164000189,None,378.3427765200613,None,378.3417102000676,None,378.3417102000676,None,380.94357940007467,None,1,1,1.68560189998243,380.94357940007467,None,,,,,,,,,,,,,,001,2021_Feb_21_0944,GuessTheSound,2020.2.10,60.068249547349424,
,2,Initial/Repeat/ManWhistle.wav,3,NEW,,,,,,,,,0,57,57,57,,,,,,,,,,,,,,,,,,,,,,,,,,,,,,,,,,,,,,,,,,,,,,,,,,,,,,,,,,,,,,,,,,,,,,,,,,,,,,,,,,,,,,,,,,,,,382.66236950003076,None,384.2261482400354,None,384.22926640009973,None,384.22926640009973,None,386.44355980004184,None,3,1,0.3740823999978602,386.44355980004184,None,,,,,,,,,,,,,,001,2021_Feb_21_0944,GuessTheSound,2020.2.10,60.068249547349424,
,1,Initial/Repeat/Trumpet_B.wav,1,OLD,,,,,,,,,0,58,58,58,,,,,,,,,,,,,,,,,,,,,,,,,,,,,,,,,,,,,,,,,,,,,,,,,,,,,,,,,,,,,,,,,,,,,,,,,,,,,,,,,,,,,,,,,,,,,386.84547770000063,None,388.37479631998576,None,388.3694594000699,None,388.3694594000699,None,390.6604010000592,None,3,0,0.4080601000459865,390.6604010000592,None,,,,,,,,,,,,,,001,2021_Feb_21_0944,GuessTheSound,2020.2.10,60.068249547349424,
,2,Initial/Repeat/Cup.wav,3,NEW,,,,,,,,,0,59,59,59,,,,,,,,,,,,,,,,,,,,,,,,,,,,,,,,,,,,,,,,,,,,,,,,,,,,,,,,,,,,,,,,,,,,,,,,,,,,,,,,,,,,,,,,,,,,,391.0941715000663,None,392.6454509400064,None,392.6426221000729,None,392.6426221000729,None,393.9768127000425,None,3,1,0.32162820000667125,393.9768127000425,None,,,,,,,,,,,,,,001,2021_Feb_21_0944,GuessTheSound,2020.2.10,60.068249547349424,
,2,Snore_C.wav,2,SIMILAR,,,,,,,,,0,60,60,60,,,,,,,,,,,,,,,,,,,,,,,,,,,,,,,,,,,,,,,,,,,,,,,,,,,,,,,,,,,,,,,,,,,,,,,,,,,,,,,,,,,,,,,,,,,,,394.3271137000993,None,395.87625694007147,None,395.8781702000415,None,395.8781702000415,None,398.74349630007055,None,2,1,0.4420003000413999,398.74349630007055,None,,,,,,,,,,,,,,001,2021_Feb_21_0944,GuessTheSound,2020.2.10,60.068249547349424,
,2,Test/Foils/Airhorn.wav,3,NEW,,,,,,,,,0,61,61,61,,,,,,,,,,,,,,,,,,,,,,,,,,,,,,,,,,,,,,,,,,,,,,,,,,,,,,,,,,,,,,,,,,,,,,,,,,,,,,,,,,,,,,,,,,,,,399.2098665999947,None,400.75938434002455,None,400.7603645999916,None,400.7603645999916,None,403.3266337000532,None,3,1,0.4072726999875158,403.3266337000532,None,,,,,,,,,,,,,,001,2021_Feb_21_0944,GuessTheSound,2020.2.10,60.068249547349424,
,2,Whistle_C.wav,2,SIMILAR,,,,,,,,,0,62,62,62,,,,,,,,,,,,,,,,,,,,,,,,,,,,,,,,,,,,,,,,,,,,,,,,,,,,,,,,,,,,,,,,,,,,,,,,,,,,,,,,,,,,,,,,,,,,,403.76003360003233,None,405.3092847400112,None,405.3065178000834,None,405.3065178000834,None,408.04355280008167,None,3,0,0.44702660001348704,408.04355280008167,None,,,,,,,,,,,,,,001,2021_Feb_21_0944,GuessTheSound,2020.2.10,60.068249547349424,
,1,Initial/Repeat/Sneeze_B.wav,1,OLD,,,,,,,,,0,63,63,63,,,,,,,,,,,,,,,,,,,,,,,,,,,,,,,,,,,,,,,,,,,,,,,,,,,,,,,,,,,,,,,,,,,,,,,,,,,,,,,,,,,,,,,,,,,,,408.51039760001004,None,410.02581851003924,None,410.03690900001675,None,410.03690900001675,None,411.2602231000783,None,1,1,0.4275181000120938,411.2602231000783,None,,,,,,,,,,,,,,001,2021_Feb_21_0944,GuessTheSound,2020.2.10,60.068249547349424,
,1,Initial/Doubled/Cat_A.wav,1,OLD,,,,,,,,,0,64,64,64,,,,,,,,,,,,,,,,,,,,,,,,,,,,,,,,,,,,,,,,,,,,,,,,,,,,,,,,,,,,,,,,,,,,,,,,,,,,,,,,,,,,,,,,,,,,,411.7107245000079,None,413.22609001008095,None,413.23472060007043,None,413.23472060007043,None,414.6601436000783,None,3,0,0.38291260006371886,414.6601436000783,None,,,,,,,,,,,,,,001,2021_Feb_21_0944,GuessTheSound,2020.2.10,60.068249547349424,
,2,Phone_D.wav,3,NEW,,,,,,,,,0,65,65,65,,,,,,,,,,,,,,,,,,,,,,,,,,,,,,,,,,,,,,,,,,,,,,,,,,,,,,,,,,,,,,,,,,,,,,,,,,,,,,,,,,,,,,,,,,,,,415.05919100006577,None,416.6091154400492,None,416.60506319999695,None,416.60506319999695,None,419.14319169998635,None,3,1,0.37383960001170635,419.14319169998635,None,,,,,,,,,,,,,,001,2021_Feb_21_0944,GuessTheSound,2020.2.10,60.068249547349424,
,2,Initial/Repeat/Bagpipe.wav,3,NEW,,,,,,,,,0,66,66,66,,,,,,,,,,,,,,,,,,,,,,,,,,,,,,,,,,,,,,,,,,,,,,,,,,,,,,,,,,,,,,,,,,,,,,,,,,,,,,,,,,,,,,,,,,,,,419.54381310008466,None,421.10933673998807,None,421.11511940008495,None,421.11511940008495,None,423.4932162000332,None,3,1,0.5864916000282392,423.4932162000332,None,,,,,,,,,,,,,,001,2021_Feb_21_0944,GuessTheSound,2020.2.10,60.068249547349424,
,2,Chomp_C.wav,2,SIMILAR,,,,,,,,,0,67,67,67,,,,,,,,,,,,,,,,,,,,,,,,,,,,,,,,,,,,,,,,,,,,,,,,,,,,,,,,,,,,,,,,,,,,,,,,,,,,,,,,,,,,,,,,,,,,,424.1105582000455,None,425.67592774005607,None,425.68074400001206,None,425.68074400001206,None,428.45976790005807,None,2,1,1.0614695000695065,428.45976790005807,None,,,,,,,,,,,,,,001,2021_Feb_21_0944,GuessTheSound,2020.2.10,60.068249547349424,
,1,Test/Foils/Slurp.wav,1,OLD,,,,,,,,,0,68,68,68,,,,,,,,,,,,,,,,,,,,,,,,,,,,,,,,,,,,,,,,,,,,,,,,,,,,,,,,,,,,,,,,,,,,,,,,,,,,,,,,,,,,,,,,,,,,,429.5446696000872,None,431.0756706200773,None,431.07058070006315,None,431.07058070006315,None,433.443175500026,None,1,1,0.9645419999724254,433.443175500026,None,,,,,,,,,,,,,,001,2021_Feb_21_0944,GuessTheSound,2020.2.10,60.068249547349424,
,2,Test/Foils/Bowlingpins.wav,3,NEW,,,,,,,,,0,69,69,69,,,,,,,,,,,,,,,,,,,,,,,,,,,,,,,,,,,,,,,,,,,,,,,,,,,,,,,,,,,,,,,,,,,,,,,,,,,,,,,,,,,,,,,,,,,,,434.42703910009004,None,435.99232883995865,None,435.99219230003655,None,435.99219230003655,None,438.42658530001063,None,3,1,0.33727979997638613,438.42658530001063,None,,,,,,,,,,,,,,001,2021_Feb_21_0944,GuessTheSound,2020.2.10,60.068249547349424,
,1,Initial/Repeat/ManWhistle.wav,1,OLD,,,,,,,,,0,70,70,70,,,,,,,,,,,,,,,,,,,,,,,,,,,,,,,,,,,,,,,,,,,,,,,,,,,,,,,,,,,,,,,,,,,,,,,,,,,,,,,,,,,,,,,,,,,,,438.7922874999931,None,440.3092011200497,None,440.30439220007975,None,440.30439220007975,None,442.5262920000823,None,3,0,0.3191253999248147,442.5262920000823,None,,,,,,,,,,,,,,001,2021_Feb_21_0944,GuessTheSound,2020.2.10,60.068249547349424,
,2,Initial/NoRepeat/Cow.wav,3,NEW,,,,,,,,,0,71,71,71,,,,,,,,,,,,,,,,,,,,,,,,,,,,,,,,,,,,,,,,,,,,,,,,,,,,,,,,,,,,,,,,,,,,,,,,,,,,,,,,,,,,,,,,,,,,,442.8754721999867,None,444.4255198399769,None,444.4300161000574,None,444.4300161000574,None,446.25972960004583,None,3,1,0.3822191000217572,446.25972960004583,None,,,,,,,,,,,,,,001,2021_Feb_21_0944,GuessTheSound,2020.2.10,60.068249547349424,
,2,Initial/Doubled/Siren_A.wav,3,NEW,,,,,,,,,0,72,72,72,,,,,,,,,,,,,,,,,,,,,,,,,,,,,,,,,,,,,,,,,,,,,,,,,,,,,,,,,,,,,,,,,,,,,,,,,,,,,,,,,,,,,,,,,,,,,446.6609282999998,None,448.24228445003973,None,448.2395872999914,None,448.2395872999914,None,451.0262326000957,None,3,1,0.4136196000035852,451.0262326000957,None,,,,,,,,,,,,,,001,2021_Feb_21_0944,GuessTheSound,2020.2.10,60.068249547349424,
,2,Initial/Repeat/Crow_B.wav,3,NEW,,,,,,,,,0,73,73,73,,,,,,,,,,,,,,,,,,,,,,,,,,,,,,,,,,,,,,,,,,,,,,,,,,,,,,,,,,,,,,,,,,,,,,,,,,,,,,,,,,,,,,,,,,,,,451.46502190001775,None,453.02544324006885,None,453.02198489999864,None,453.02198489999864,None,455.09303480002563,None,3,1,0.31983000005129725,455.09303480002563,None,,,,,,,,,,,,,,001,2021_Feb_21_0944,GuessTheSound,2020.2.10,60.068249547349424,
,1,Initial/Repeat/Bagpipe.wav,1,OLD,,,,,,,,,0,74,74,74,,,,,,,,,,,,,,,,,,,,,,,,,,,,,,,,,,,,,,,,,,,,,,,,,,,,,,,,,,,,,,,,,,,,,,,,,,,,,,,,,,,,,,,,,,,,,455.441936200019,None,456.95870392001234,None,456.95568110002205,None,456.95568110002205,None,459.326373500051,None,3,0,5.024174700025469,459.326373500051,None,,,,,,,,,,,,,,001,2021_Feb_21_0944,GuessTheSound,2020.2.10,60.068249547349424,
,1,Initial/Repeat/Cup.wav,1,OLD,,,,,,,,,0,75,75,75,,,,,,,,,,,,,,,,,,,,,,,,,,,,,,,,,,,,,,,,,,,,,,,,,,,,,,,,,,,,,,,,,,,,,,,,,,,,,,,,,,,,,,,,,,,,,464.37803630006965,None,465.89187121001305,None,465.9045848000096,None,465.9045848000096,None,467.2426941000158,None,1,1,0.4825162999331951,467.2426941000158,None,,,,,,,,,,,,,,001,2021_Feb_21_0944,GuessTheSound,2020.2.10,60.068249547349424,
,2,Test/Foils/Bullfrog.wav,3,NEW,,,,,,,,,0,76,76,76,,,,,,,,,,,,,,,,,,,,,,,,,,,,,,,,,,,,,,,,,,,,,,,,,,,,,,,,,,,,,,,,,,,,,,,,,,,,,,,,,,,,,,,,,,,,,467.7438931000652,None,469.32577595004113,None,469.32057710003573,None,469.32057710003573,None,472.19265270000324,None,3,1,1.407402699929662,472.19265270000324,None,,,,,,,,,,,,,,001,2021_Feb_21_0944,GuessTheSound,2020.2.10,60.068249547349424,
,2,Initial/Repeat/Phone_A.wav,2,SIMILAR,,,,,,,,,0,77,77,77,,,,,,,,,,,,,,,,,,,,,,,,,,,,,,,,,,,,,,,,,,,,,,,,,,,,,,,,,,,,,,,,,,,,,,,,,,,,,,,,,,,,,,,,,,,,,473.6276678000577,None,475.19184923998546,None,475.1944054000778,None,475.1944054000778,None,478.0594015000388,None,2,1,2.087808100041002,478.0594015000388,None,,,,,,,,,,,,,,001,2021_Feb_21_0944,GuessTheSound,2020.2.10,60.068249547349424,
,2,Initial/Doubled/HairDryer_A.wav,3,NEW,,,,,,,,,0,78,78,78,,,,,,,,,,,,,,,,,,,,,,,,,,,,,,,,,,,,,,,,,,,,,,,,,,,,,,,,,,,,,,,,,,,,,,,,,,,,,,,,,,,,,,,,,,,,,480.1755857000826,None,481.7254339400679,None,481.7233941000886,None,481.7233941000886,None,484.29266360006295,None,3,1,1.3962569000432268,484.29266360006295,None,,,,,,,,,,,,,,001,2021_Feb_21_0944,GuessTheSound,2020.2.10,60.068249547349424,
,1,Test/Foils/Airhorn.wav,1,OLD,,,,,,,,,0,79,79,79,,,,,,,,,,,,,,,,,,,,,,,,,,,,,,,,,,,,,,,,,,,,,,,,,,,,,,,,,,,,,,,,,,,,,,,,,,,,,,,,,,,,,,,,,,,,,485.71274460002314,None,487.22496190998936,None,487.23911220009904,None,487.23911220009904,None,489.7925667000236,None,3,0,0.3548860000446439,489.7925667000236,None,,,,,,,,,,,,,,001,2021_Feb_21_0944,GuessTheSound,2020.2.10,60.068249547349424,
,2,Initial/NoRepeat/Hammer_A.wav,3,NEW,,,,,,,,,0,80,80,80,,,,,,,,,,,,,,,,,,,,,,,,,,,,,,,,,,,,,,,,,,,,,,,,,,,,,,,,,,,,,,,,,,,,,,,,,,,,,,,,,,,,,,,,,,,,,490.16497420007363,None,491.7085566300084,None,491.7192866000114,None,491.7192866000114,None,494.1934500000207,None,3,1,0.7032271000789478,494.1934500000207,None,,,,,,,,,,,,,,001,2021_Feb_21_0944,GuessTheSound,2020.2.10,60.068249547349424,
,2,Initial/Doubled/Cuckoo_A.wav,3,NEW,,,,,,,,,0,81,81,81,,,,,,,,,,,,,,,,,,,,,,,,,,,,,,,,,,,,,,,,,,,,,,,,,,,,,,,,,,,,,,,,,,,,,,,,,,,,,,,,,,,,,,,,,,,,,494.9250544999959,None,496.47530073998496,None,496.48049350001384,None,496.48049350001384,None,498.97593190008774,None,1,0,0.2813900000182912,498.97593190008774,None,,,,,,,,,,,,,,001,2021_Feb_21_0944,GuessTheSound,2020.2.10,60.068249547349424,
,1,Initial/NoRepeat/Cow.wav,1,OLD,,,,,,,,,0,82,82,82,,,,,,,,,,,,,,,,,,,,,,,,,,,,,,,,,,,,,,,,,,,,,,,,,,,,,,,,,,,,,,,,,,,,,,,,,,,,,,,,,,,,,,,,,,,,,499.2772631000262,None,500.7917650100426,None,500.8026857000077,None,500.8026857000077,None,502.64230300008785,None,1,1,0.29113399994093925,502.64230300008785,None,,,,,,,,,,,,,,001,2021_Feb_21_0944,GuessTheSound,2020.2.10,60.068249547349424,
,2,Initial/NoRepeat/Footsteps_B.wav,3,NEW,,,,,,,,,0,83,83,83,,,,,,,,,,,,,,,,,,,,,,,,,,,,,,,,,,,,,,,,,,,,,,,,,,,,,,,,,,,,,,,,,,,,,,,,,,,,,,,,,,,,,,,,,,,,,502.95945620001294,None,504.5249711399665,None,504.5278288000263,None,504.5278288000263,None,507.19229620008264,None,3,1,0.46759710006881505,507.19229620008264,None,,,,,,,,,,,,,,001,2021_Feb_21_0944,GuessTheSound,2020.2.10,60.068249547349424,
,2,Dog_E.wav,3,NEW,,,,,,,,,0,84,84,84,,,,,,,,,,,,,,,,,,,,,,,,,,,,,,,,,,,,,,,,,,,,,,,,,,,,,,,,,,,,,,,,,,,,,,,,,,,,,,,,,,,,,,,,,,,,,507.69335690001026,None,509.2581340400502,None,509.2559147999855,None,509.2559147999855,None,511.0089522000635,None,3,1,0.6155017000855878,511.0089522000635,None,,,,,,,,,,,,,,001,2021_Feb_21_0944,GuessTheSound,2020.2.10,60.068249547349424,
,1,Test/Foils/Bowlingpins.wav,1,OLD,,,,,,,,,0,85,85,85,,,,,,,,,,,,,,,,,,,,,,,,,,,,,,,,,,,,,,,,,,,,,,,,,,,,,,,,,,,,,,,,,,,,,,,,,,,,,,,,,,,,,,,,,,,,,511.6466006000992,None,513.1582331100362,None,513.1697054000106,None,513.1697054000106,None,515.609117200016,None,3,0,0.3117256999248639,515.609117200016,None,,,,,,,,,,,,,,001,2021_Feb_21_0944,GuessTheSound,2020.2.10,60.068249547349424,
,2,Piano_D.wav,3,NEW,,,,,,,,,0,86,86,86,,,,,,,,,,,,,,,,,,,,,,,,,,,,,,,,,,,,,,,,,,,,,,,,,,,,,,,,,,,,,,,,,,,,,,,,,,,,,,,,,,,,,,,,,,,,,515.9429720999906,None,517.5082279400667,None,517.5153801999986,None,517.5153801999986,None,520.3922480000183,None,3,1,0.3951344999950379,520.3922480000183,None,,,,,,,,,,,,,,001,2021_Feb_21_0944,GuessTheSound,2020.2.10,60.068249547349424,
,2,Initial/NoRepeat/Fireworks.wav,3,NEW,,,,,,,,,0,87,87,87,,,,,,,,,,,,,,,,,,,,,,,,,,,,,,,,,,,,,,,,,,,,,,,,,,,,,,,,,,,,,,,,,,,,,,,,,,,,,,,,,,,,,,,,,,,,,520.8092156000203,None,522.3748848399846,None,522.3789055000525,None,522.3789055000525,None,525.2420390000334,None,3,1,0.35027080005966127,525.2420390000334,None,,,,,,,,,,,,,,001,2021_Feb_21_0944,GuessTheSound,2020.2.10,60.068249547349424,
,1,Test/Foils/Bullfrog.wav,1,OLD,,,,,,,,,0,88,88,88,,,,,,,,,,,,,,,,,,,,,,,,,,,,,,,,,,,,,,,,,,,,,,,,,,,,,,,,,,,,,,,,,,,,,,,,,,,,,,,,,,,,,,,,,,,,,525.6092547000153,None,527.1411297200248,None,527.1345133000286,None,527.1345133000286,None,530.0087357000448,None,3,0,0.35865920002106577,530.0087357000448,None,,,,,,,,,,,,,,001,2021_Feb_21_0944,GuessTheSound,2020.2.10,60.068249547349424,
,2,Siren_C.wav,2,SIMILAR,,,,,,,,,0,89,89,89,,,,,,,,,,,,,,,,,,,,,,,,,,,,,,,,,,,,,,,,,,,,,,,,,,,,,,,,,,,,,,,,,,,,,,,,,,,,,,,,,,,,,,,,,,,,,530.3939691000851,None,531.9412666300195,None,531.9497059000423,None,531.9497059000423,None,534.4252922000596,None,3,0,0.6295316000469029,534.4252922000596,None,,,,,,,,,,,,,,001,2021_Feb_21_0944,GuessTheSound,2020.2.10,60.068249547349424,
,2,Crow_A.wav,2,SIMILAR,,,,,,,,,0,90,90,90,,,,,,,,,,,,,,,,,,,,,,,,,,,,,,,,,,,,,,,,,,,,,,,,,,,,,,,,,,,,,,,,,,,,,,,,,,,,,,,,,,,,,,,,,,,,,535.0768249999965,None,536.624610930041,None,536.6321340000723,None,536.6321340000723,None,538.3255939000519,None,2,1,0.8917100999969989,538.3255939000519,None,,,,,,,,,,,,,,001,2021_Feb_21_0944,GuessTheSound,2020.2.10,60.068249547349424,
,2,Initial/NoRepeat/Goat_B.wav,3,NEW,,,,,,,,,0,91,91,91,,,,,,,,,,,,,,,,,,,,,,,,,,,,,,,,,,,,,,,,,,,,,,,,,,,,,,,,,,,,,,,,,,,,,,,,,,,,,,,,,,,,,,,,,,,,,539.2426061000442,None,540.8077688399935,None,540.8066800000379,None,540.8066800000379,None,542.9585350000998,None,3,1,0.25333909993059933,542.9585350000998,None,,,,,,,,,,,,,,001,2021_Feb_21_0944,GuessTheSound,2020.2.10,60.068249547349424,
,1,Initial/Doubled/HairDryer_A.wav,1,OLD,,,,,,,,,0,92,92,92,,,,,,,,,,,,,,,,,,,,,,,,,,,,,,,,,,,,,,,,,,,,,,,,,,,,,,,,,,,,,,,,,,,,,,,,,,,,,,,,,,,,,,,,,,,,,543.2412035000743,None,544.7579638200114,None,544.757485600072,None,544.757485600072,None,547.325310699991,None,3,0,0.3998753000050783,547.325310699991,None,,,,,,,,,,,,,,001,2021_Feb_21_0944,GuessTheSound,2020.2.10,60.068249547349424,
,1,Initial/Doubled/Cuckoo_A.wav,1,OLD,,,,,,,,,0,93,93,93,,,,,,,,,,,,,,,,,,,,,,,,,,,,,,,,,,,,,,,,,,,,,,,,,,,,,,,,,,,,,,,,,,,,,,,,,,,,,,,,,,,,,,,,,,,,,547.7426309000002,None,549.2745464200852,None,549.2706394999987,None,549.2706394999987,None,551.7586097000167,None,1,1,0.12352329993154854,551.7586097000167,None,,,,,,,,,,,,,,001,2021_Feb_21_0944,GuessTheSound,2020.2.10,60.068249547349424,
,2,Coin_C.wav,3,NEW,,,,,,,,,0,94,94,94,,,,,,,,,,,,,,,,,,,,,,,,,,,,,,,,,,,,,,,,,,,,,,,,,,,,,,,,,,,,,,,,,,,,,,,,,,,,,,,,,,,,,,,,,,,,,551.9076309000375,None,553.4410900300718,None,553.4438464000123,None,553.4438464000123,None,554.7586410000222,None,3,1,1.6977670000633225,554.7586410000222,None,,,,,,,,,,,,,,001,2021_Feb_21_0944,GuessTheSound,2020.2.10,60.068249547349424,
,2,Initial/Repeat/Howl.wav,3,NEW,,,,,,,,,0,95,95,95,,,,,,,,,,,,,,,,,,,,,,,,,,,,,,,,,,,,,,,,,,,,,,,,,,,,,,,,,,,,,,,,,,,,,,,,,,,,,,,,,,,,,,,,,,,,,556.4771441000048,None,558.0411337399855,None,558.0392329000169,None,558.0392329000169,None,560.7917884000344,None,3,1,0.374972700024955,560.7917884000344,None,,,,,,,,,,,,,,001,2021_Feb_21_0944,GuessTheSound,2020.2.10,60.068249547349424,
,1,Initial/NoRepeat/Hammer_A.wav,1,OLD,,,,,,,,,0,96,96,96,,,,,,,,,,,,,,,,,,,,,,,,,,,,,,,,,,,,,,,,,,,,,,,,,,,,,,,,,,,,,,,,,,,,,,,,,,,,,,,,,,,,,,,,,,,,,561.192486200016,None,562.7076995099778,None,562.7189393000444,None,562.7189393000444,None,565.1917068000184,None,1,1,1.1597488999832422,565.1917068000184,None,,,,,,,,,,,,,,001,2021_Feb_21_0944,GuessTheSound,2020.2.10,60.068249547349424,
,2,Initial/NoRepeat/Helicopter_A.wav,3,NEW,,,,,,,,,0,97,97,97,,,,,,,,,,,,,,,,,,,,,,,,,,,,,,,,,,,,,,,,,,,,,,,,,,,,,,,,,,,,,,,,,,,,,,,,,,,,,,,,,,,,,,,,,,,,,566.3740645000944,None,567.9242568400223,None,567.9329479000298,None,567.9329479000298,None,570.3917011000449,None,3,1,1.2878905000397936,570.3917011000449,None,,,,,,,,,,,,,,001,2021_Feb_21_0944,GuessTheSound,2020.2.10,60.068249547349424,
,2,Initial/Doubled/Bubbles_A.wav,3,NEW,,,,,,,,,0,98,98,98,,,,,,,,,,,,,,,,,,,,,,,,,,,,,,,,,,,,,,,,,,,,,,,,,,,,,,,,,,,,,,,,,,,,,,,,,,,,,,,,,,,,,,,,,,,,,571.7080294000916,None,573.2407686299994,None,573.2494722000556,None,573.2494722000556,None,575.674949600012,None,3,1,6.152720100013539,575.674949600012,None,,,,,,,,,,,,,,001,2021_Feb_21_0944,GuessTheSound,2020.2.10,60.068249547349424,
,2,Footsteps_C.wav,2,SIMILAR,,,,,,,,,0,99,99,99,,,,,,,,,,,,,,,,,,,,,,,,,,,,,,,,,,,,,,,,,,,,,,,,,,,,,,,,,,,,,,,,,,,,,,,,,,,,,,,,,,,,,,,,,,,,,581.8590823000995,None,583.4243422399741,None,583.4263408000115,None,583.4263408000115,None,586.2080837000394,None,2,1,2.8851713000331074,586.2080837000394,None,,,,,,,,,,,,,,001,2021_Feb_21_0944,GuessTheSound,2020.2.10,60.068249547349424,
,2,Initial/Doubled/Growl_A.wav,3,NEW,,,,,,,,,0,100,100,100,,,,,,,,,,,,,,,,,,,,,,,,,,,,,,,,,,,,,,,,,,,,,,,,,,,,,,,,,,,,,,,,,,,,,,,,,,,,,,,,,,,,,,,,,,,,,589.1095306000207,None,590.6742968399776,None,590.6765040000901,None,590.6765040000901,None,593.5249009000836,None,3,1,1.2787044999422505,593.5249009000836,None,,,,,,,,,,,,,,001,2021_Feb_21_0944,GuessTheSound,2020.2.10,60.068249547349424,
,2,Test/Foils/Horse.wav,3,NEW,,,,,,,,,0,101,101,101,,,,,,,,,,,,,,,,,,,,,,,,,,,,,,,,,,,,,,,,,,,,,,,,,,,,,,,,,,,,,,,,,,,,,,,,,,,,,,,,,,,,,,,,,,,,,594.8259980999865,None,596.3907610400347,None,596.3854697000934,None,596.3854697000934,None,598.5747059000423,None,1,0,0.39527930004987866,598.5747059000423,None,,,,,,,,,,,,,,001,2021_Feb_21_0944,GuessTheSound,2020.2.10,60.068249547349424,
,1,Piano_D.wav,1,OLD,,,,,,,,,0,102,102,102,,,,,,,,,,,,,,,,,,,,,,,,,,,,,,,,,,,,,,,,,,,,,,,,,,,,,,,,,,,,,,,,,,,,,,,,,,,,,,,,,,,,,,,,,,,,,598.9904186000349,None,600.5072170200292,None,600.5068637999939,None,600.5068637999939,None,603.3747857999988,None,1,1,0.47848559997510165,603.3747857999988,None,,,,,,,,,,,,,,001,2021_Feb_21_0944,GuessTheSound,2020.2.10,60.068249547349424,
,2,Dog_F.wav,2,SIMILAR,,,,,,,,,0,103,103,103,,,,,,,,,,,,,,,,,,,,,,,,,,,,,,,,,,,,,,,,,,,,,,,,,,,,,,,,,,,,,,,,,,,,,,,,,,,,,,,,,,,,,,,,,,,,,603.8755115000531,None,605.4406219400698,None,605.4371554000536,None,605.4371554000536,None,607.1079430000391,None,2,1,3.1863904000492766,607.1079430000391,None,,,,,,,,,,,,,,001,2021_Feb_21_0944,GuessTheSound,2020.2.10,60.068249547349424,
,1,Initial/NoRepeat/Fireworks.wav,1,OLD,,,,,,,,,0,104,104,104,,,,,,,,,,,,,,,,,,,,,,,,,,,,,,,,,,,,,,,,,,,,,,,,,,,,,,,,,,,,,,,,,,,,,,,,,,,,,,,,,,,,,,,,,,,,,610.3250995000126,None,611.85726342001,None,611.8517041000305,None,611.8517041000305,None,614.7246375000104,None,1,1,0.38629100006073713,614.7246375000104,None,,,,,,,,,,,,,,001,2021_Feb_21_0944,GuessTheSound,2020.2.10,60.068249547349424,
,2,Initial/Repeat/Printer.wav,3,NEW,,,,,,,,,0,105,105,105,,,,,,,,,,,,,,,,,,,,,,,,,,,,,,,,,,,,,,,,,,,,,,,,,,,,,,,,,,,,,,,,,,,,,,,,,,,,,,,,,,,,,,,,,,,,,615.1403727000579,None,616.6902871399652,None,616.6941096000373,None,616.6941096000373,None,619.457807400031,None,3,1,0.8898729999782518,619.457807400031,None,,,,,,,,,,,,,,001,2021_Feb_21_0944,GuessTheSound,2020.2.10,60.068249547349424,
,2,Test/Foils/Camera.wav,3,NEW,,,,,,,,,0,106,106,106,,,,,,,,,,,,,,,,,,,,,,,,,,,,,,,,,,,,,,,,,,,,,,,,,,,,,,,,,,,,,,,,,,,,,,,,,,,,,,,,,,,,,,,,,,,,,620.3742099000374,None,621.9071038300754,None,621.9146518000634,None,621.9146518000634,None,622.8746580000734,None,1,0,0.49060060002375394,622.8746580000734,None,,,,,,,,,,,,,,001,2021_Feb_21_0944,GuessTheSound,2020.2.10,60.068249547349424,
,2,Clap_B.wav,3,NEW,,,,,,,,,0,107,107,107,,,,,,,,,,,,,,,,,,,,,,,,,,,,,,,,,,,,,,,,,,,,,,,,,,,,,,,,,,,,,,,,,,,,,,,,,,,,,,,,,,,,,,,,,,,,,623.3917871000012,None,624.9570508400211,None,624.9578136000782,None,624.9578136000782,None,627.6078640000196,None,3,1,0.6502916999161243,627.6078640000196,None,,,,,,,,,,,,,,001,2021_Feb_21_0944,GuessTheSound,2020.2.10,60.068249547349424,
,2,Initial/Repeat/PaperRip.wav,3,NEW,,,,,,,,,0,108,108,108,,,,,,,,,,,,,,,,,,,,,,,,,,,,,,,,,,,,,,,,,,,,,,,,,,,,,,,,,,,,,,,,,,,,,,,,,,,,,,,,,,,,,,,,,,,,,628.2902267000172,None,629.8234872300527,None,629.8307974000927,None,629.8307974000927,None,631.4221606000792,None,3,1,0.4042489998973906,631.4221606000792,None,,,,,,,,,,,,,,001,2021_Feb_21_0944,GuessTheSound,2020.2.10,60.068249547349424,
,2,Coin_B.wav,2,SIMILAR,,,,,,,,,0,109,109,109,,,,,,,,,,,,,,,,,,,,,,,,,,,,,,,,,,,,,,,,,,,,,,,,,,,,,,,,,,,,,,,,,,,,,,,,,,,,,,,,,,,,,,,,,,,,,631.8550522000296,None,633.3889270299696,None,633.3915757000213,None,633.3915757000213,None,634.7567600000184,None,2,1,2.2696050000377,634.7567600000184,None,,,,,,,,,,,,,,001,2021_Feb_21_0944,GuessTheSound,2020.2.10,60.068249547349424,
,2,Initial/NoRepeat/Droplet_B.wav,3,NEW,,,,,,,,,0,110,110,110,,,,,,,,,,,,,,,,,,,,,,,,,,,,,,,,,,,,,,,,,,,,,,,,,,,,,,,,,,,,,,,,,,,,,,,,,,,,,,,,,,,,,,,,,,,,,637.0588346000295,None,638.623811139958,None,638.6255824000109,None,638.6255824000109,None,640.7743829000974,None,3,1,0.6416677999077365,640.7743829000974,None,,,,,,,,,,,,,,001,2021_Feb_21_0944,GuessTheSound,2020.2.10,60.068249547349424,
,2,Test/Foils/Steam.wav,3,NEW,,,,,,,,,0,111,111,111,,,,,,,,,,,,,,,,,,,,,,,,,,,,,,,,,,,,,,,,,,,,,,,,,,,,,,,,,,,,,,,,,,,,,,,,,,,,,,,,,,,,,,,,,,,,,641.4420463000424,None,643.0068557399791,None,643.008074900019,None,643.008074900019,None,645.5244516000384,None,1,0,0.33030640007928014,645.5244516000384,None,,,,,,,,,,,,,,001,2021_Feb_21_0944,GuessTheSound,2020.2.10,60.068249547349424,
,1,Initial/NoRepeat/Helicopter_A.wav,1,OLD,,,,,,,,,0,112,112,112,,,,,,,,,,,,,,,,,,,,,,,,,,,,,,,,,,,,,,,,,,,,,,,,,,,,,,,,,,,,,,,,,,,,,,,,,,,,,,,,,,,,,,,,,,,,,645.8751150000608,None,647.4066480200272,None,647.404311100021,None,647.404311100021,None,649.8576980000362,None,3,0,0.4998905999818817,649.8576980000362,None,,,,,,,,,,,,,,001,2021_Feb_21_0944,GuessTheSound,2020.2.10,60.068249547349424,
,2,Initial/Doubled/CarStart_A.wav,3,NEW,,,,,,,,,0,113,113,113,,,,,,,,,,,,,,,,,,,,,,,,,,,,,,,,,,,,,,,,,,,,,,,,,,,,,,,,,,,,,,,,,,,,,,,,,,,,,,,,,,,,,,,,,,,,,650.373321800027,None,651.940460349957,None,651.9496560000116,None,651.9496560000116,None,654.457584900083,None,3,1,0.3328332999954,654.457584900083,None,,,,,,,,,,,,,,001,2021_Feb_21_0944,GuessTheSound,2020.2.10,60.068249547349424,
,1,Initial/Repeat/Howl.wav,1,OLD,,,,,,,,,0,114,114,114,,,,,,,,,,,,,,,,,,,,,,,,,,,,,,,,,,,,,,,,,,,,,,,,,,,,,,,,,,,,,,,,,,,,,,,,,,,,,,,,,,,,,,,,,,,,,654.8067346999887,None,656.3234040200477,None,656.3236070000567,None,656.3236070000567,None,659.074179999996,None,1,1,0.26294839999172837,659.074179999996,None,,,,,,,,,,,,,,001,2021_Feb_21_0944,GuessTheSound,2020.2.10,60.068249547349424,
,2,Growl_B.wav,2,SIMILAR,,,,,,,,,0,115,115,115,,,,,,,,,,,,,,,,,,,,,,,,,,,,,,,,,,,,,,,,,,,,,,,,,,,,,,,,,,,,,,,,,,,,,,,,,,,,,,,,,,,,,,,,,,,,,659.3607329000952,None,660.9235828400124,None,660.923830899992,None,660.923830899992,None,663.7908463000786,None,3,0,0.34616219997406006,663.7908463000786,None,,,,,,,,,,,,,,001,2021_Feb_21_0944,GuessTheSound,2020.2.10,60.068249547349424,
,2,Goat_C.wav,2,SIMILAR,,,,,,,,,0,116,116,116,,,,,,,,,,,,,,,,,,,,,,,,,,,,,,,,,,,,,,,,,,,,,,,,,,,,,,,,,,,,,,,,,,,,,,,,,,,,,,,,,,,,,,,,,,,,,664.1582832999993,None,665.7236884400481,None,665.7260636000428,None,665.7260636000428,None,667.5407720000949,None,2,1,0.7640489999903366,667.5407720000949,None,,,,,,,,,,,,,,001,2021_Feb_21_0944,GuessTheSound,2020.2.10,60.068249547349424,
,2,Test/Foils/Donkey.wav,3,NEW,,,,,,,,,0,117,117,117,,,,,,,,,,,,,,,,,,,,,,,,,,,,,,,,,,,,,,,,,,,,,,,,,,,,,,,,,,,,,,,,,,,,,,,,,,,,,,,,,,,,,,,,,,,,,668.3238931000233,None,669.873507339973,None,669.8796190000139,None,669.8796190000139,None,672.5907024000771,None,1,0,0.30032389995176345,672.5907024000771,None,,,,,,,,,,,,,,001,2021_Feb_21_0944,GuessTheSound,2020.2.10,60.068249547349424,
,1,Initial/Repeat/PaperRip.wav,1,OLD,,,,,,,,,0,118,118,118,,,,,,,,,,,,,,,,,,,,,,,,,,,,,,,,,,,,,,,,,,,,,,,,,,,,,,,,,,,,,,,,,,,,,,,,,,,,,,,,,,,,,,,,,,,,,672.9083334000316,None,674.4233887100709,None,674.4335552999983,None,674.4335552999983,None,676.0240370000247,None,1,1,0.6533747999928892,676.0240370000247,None,,,,,,,,,,,,,,001,2021_Feb_21_0944,GuessTheSound,2020.2.10,60.068249547349424,
,2,Test/Lures/Bubbles_B.wav,2,SIMILAR,,,,,,,,,0,119,119,119,,,,,,,,,,,,,,,,,,,,,,,,,,,,,,,,,,,,,,,,,,,,,,,,,,,,,,,,,,,,,,,,,,,,,,,,,,,,,,,,,,,,,,,,,,,,,676.707336600055,None,678.2732021499542,None,678.2697826999938,None,678.2697826999938,None,680.7074956999859,None,2,1,1.2037933999672532,680.7074956999859,None,,,,,,,,,,,,,,001,2021_Feb_21_0944,GuessTheSound,2020.2.10,60.068249547349424,
,1,Test/Foils/Horse.wav,1,OLD,,,,,,,,,0,120,120,120,,,,,,,,,,,,,,,,,,,,,,,,,,,,,,,,,,,,,,,,,,,,,,,,,,,,,,,,,,,,,,,,,,,,,,,,,,,,,,,,,,,,,,,,,,,,,681.9452214000048,None,683.4729883200489,None,683.4698134000646,None,683.4698134000646,None,685.6574105999898,None,1,1,0.287043199990876,685.6574105999898,None,,,,,,,,,,,,,,001,2021_Feb_21_0944,GuessTheSound,2020.2.10,60.068249547349424,
,1,Initial/Repeat/Printer.wav,1,OLD,,,,,,,,,0,121,121,121,,,,,,,,,,,,,,,,,,,,,,,,,,,,,,,,,,,,,,,,,,,,,,,,,,,,,,,,,,,,,,,,,,,,,,,,,,,,,,,,,,,,,,,,,,,,,685.9729274000274,None,687.4899223200046,None,687.4911565000657,None,687.4911565000657,None,690.2575143000577,None,1,1,0.2997503000078723,690.2575143000577,None,,,,,,,,,,,,,,001,2021_Feb_21_0944,GuessTheSound,2020.2.10,60.068249547349424,
,1,Test/Foils/Camera.wav,1,OLD,,,,,,,,,0,122,122,122,,,,,,,,,,,,,,,,,,,,,,,,,,,,,,,,,,,,,,,,,,,,,,,,,,,,,,,,,,,,,,,,,,,,,,,,,,,,,,,,,,,,,,,,,,,,,690.5728446000721,None,692.0898571200669,None,692.0858383000595,None,692.0858383000595,None,693.0574830000987,None,1,1,1.3919418000150472,693.0574830000987,None,,,,,,,,,,,,,,001,2021_Feb_21_0944,GuessTheSound,2020.2.10,60.068249547349424,
,1,Initial/NoRepeat/Droplet_B.wav,1,OLD,,,,,,,,,0,123,123,123,,,,,,,,,,,,,,,,,,,,,,,,,,,,,,,,,,,,,,,,,,,,,,,,,,,,,,,,,,,,,,,,,,,,,,,,,,,,,,,,,,,,,,,,,,,,,694.4752495000139,None,695.9895242100465,None,695.9994055000134,None,695.9994055000134,None,698.1576131000184,None,1,1,0.4457751999143511,698.1576131000184,None,,,,,,,,,,,,,,001,2021_Feb_21_0944,GuessTheSound,2020.2.10,60.068249547349424,
,1,Test/Foils/Steam.wav,1,OLD,,,,,,,,,0,124,124,124,,,,,,,,,,,,,,,,,,,,,,,,,,,,,,,,,,,,,,,,,,,,,,,,,,,,,,,,,,,,,,,,,,,,,,,,,,,,,,,,,,,,,,,,,,,,,698.6286558000138,None,700.1562929200009,None,700.154048299999,None,700.154048299999,None,702.6736305000959,None,1,1,0.2959061999572441,702.6736305000959,None,,,,,,,,,,,,,,001,2021_Feb_21_0944,GuessTheSound,2020.2.10,60.068249547349424,
,2,CarStart_E.wav,2,SIMILAR,,,,,,,,,0,125,125,125,,,,,,,,,,,,,,,,,,,,,,,,,,,,,,,,,,,,,,,,,,,,,,,,,,,,,,,,,,,,,,,,,,,,,,,,,,,,,,,,,,,,,,,,,,,,,702.9893853000831,None,704.5396923400695,None,704.5425448000897,None,704.5425448000897,None,707.0236577000469,None,2,1,1.4969891000073403,707.0236577000469,None,,,,,,,,,,,,,,001,2021_Feb_21_0944,GuessTheSound,2020.2.10,60.068249547349424,
,1,Test/Foils/Donkey.wav,1,OLD,,,,,,,,,0,126,126,126,,,,,,,,,,,,,,,,,,,,,,,,,,,,,,,,,,,,,,,,,,,,,,,,,,,,,,,,,,,,,,,,,,,,,,,,,,,,,,,,,,,,,,,,,,,,,708.5398435000097,None,710.0560544200707,None,710.0571332999971,None,710.0571332999971,None,712.773422600003,None,1,1,0.35408010007813573,712.773422600003,None,,,,,,,,,,,,,,001,2021_Feb_21_0944,GuessTheSound,2020.2.10,60.068249547349424,
,2,Clap_C.wav,2,SIMILAR,,,,,,,,,0,127,127,127,,,,,,,,,,,,,,,,,,,,,,,,,,,,,,,,,,,,,,,,,,,,,,,,,,,,,,,,,,,,,,,,,,,,,,,,,,,,,,,,,,,,,,,,,,,,,713.156164700049,None,714.7061230400577,None,714.7020992999896,None,714.7020992999896,None,717.3400382000254,None,2,1,1.6130772999022156,717.3400382000254,None,,,,,,,,,,,,,,001,2021_Feb_21_0944,GuessTheSound,2020.2.10,60.068249547349424,
,,,,,,,,,,,,,,,,,,,,,,,,,,,,,,,,,,,,,,,,,,,,,,,,,,,,,,,,,,,,,,,,,,,,,,,,,,,,,,,,,,,,,,,,,,,,,,,,,,,,,,,,,,,,,,,,,,,,,,,,,,,,719.0131914000958,None,719.0131914000958,None,719.0131914000958,None,space,2.2143173000076786,719.0131914000958,None,,,,001,2021_Feb_21_0944,GuessTheSound,2020.2.10,60.068249547349424,
,,,,,,,,,,,,,,,,,,,,,,,,,,,,,,,,,,,,,,,,,,,,,,,,,,,,,,,,,,,,,,,,,,,,,,,,,,,,,,,,,,,,,,,,,,,,,,,,,,,,,,,,,,,,,,,,,,,,,,,,,,,,,,,,,,,,,,719.0131914000958,None,,,,,,,
