SoundFile5,Correct,Correct2,Type,PracticeTrials.thisRepN,PracticeTrials.thisTrialN,PracticeTrials.thisN,PracticeTrials.thisIndex,trials.thisRepN,trials.thisTrialN,trials.thisN,trials.thisIndex,InstructionTxt.started,InstructionTxt.stopped,WelcomContinue.started,WelcomContinue.stopped,VolumeBeginTxt.started,VolumeBeginTxt.stopped,VolumeContinueKey.keys,VolumeContinueKey.rt,VolumeContinueKey.started,VolumeContinueKey.stopped,text.started,text.stopped,Music.started,Music.stopped,AdjustContinue.started,AdjustContinue.stopped,HeadphoneCheckBeing.started,HeadphoneCheckBeing.stopped,HeadphoneContinue.started,HeadphoneContinue.stopped,HeadphoneContinueKey.keys,HeadphoneContinueKey.rt,HeadphoneContinueKey.started,HeadphoneContinueKey.stopped,WelcomeTxt1.started,WelcomeTxt1.stopped,ContinueKey1.started,ContinueKey1.stopped,ContinueResp.keys,ContinueResp.rt,ContinueResp.started,ContinueResp.stopped,Welcome2Txt.started,Welcome2Txt.stopped,Wel2ContinueKey.keys,Wel2ContinueKey.rt,Wel2ContinueKey.started,Wel2ContinueKey.stopped,Continue2.started,Continue2.stopped,InstructionTxt2.started,InstructionTxt2.stopped,WelcomeContinue2.started,WelcomeContinue2.stopped,WelcomeContinueKey2.keys,WelcomeContinueKey2.rt,WelcomeContinueKey2.started,WelcomeContinueKey2.stopped,TrialNumber.started,TrialNumber.stopped,PracticeSound.started,PracticeSound.stopped,PracticeCross.started,PracticeCross.stopped,Practice_resp.keys,Practice_resp.corr,Practice_resp.rt,Practice_resp.started,Practice_resp.stopped,PracticeMssg.started,PracticeMssg.stopped,FeedbackCross.started,FeedbackCross.stopped,Continue.started,Continue.stopped,Options.started,Options.stopped,FeedbackMssg.started,FeedbackMssg.stopped,StartTxt.started,StartTxt.stopped,StartTast.keys,StartTast.rt,StartTast.started,StartTast.stopped,ContinueStart.started,ContinueStart.stopped,no_3.started,no_3.stopped,TargetSound.started,TargetSound.stopped,Cross.started,Cross.stopped,ItemNumber.started,ItemNumber.stopped,MSTQuestion.started,MSTQuestion.stopped,MSTResp.keys,MSTResp.corr,MSTResp.rt,MSTResp.started,MSTResp.stopped,participant,session,date,expName,psychopyVersion,frameRate,
,,,,,,,,,,,,8.17844549997244,None,8.17844549997244,None,8.90418429998681,None,space,0.5864606999093667,8.90418429998681,None,,,,,,,,,,,,,,,,,,,,,,,,,,,,,,,,,,,,,,,,,,,,,,,,,,,,,,,,,,,,,,,,,,,,,,,,,,,,,,,,,,,,001,2021_Feb_19_1733,GuessTheSound,2020.2.10,60.056453062267565,
,,,,,,,,,,,,,,,,,,,,,,9.578373400028795,None,9.57063913999591,None,9.578373400028795,None,10.174593799980357,None,10.174593799980357,None,space,0.8383644000859931,10.174593799980357,None,,,,,,,,,,,,,,,,,,,,,,,,,,,,,,,,,,,,,,,,,,,,,,,,,,,,,,,,,,,,,,,,,,,,,,001,2021_Feb_19_1733,GuessTheSound,2020.2.10,60.056453062267565,
,,,,,,,,,,,,,,,,,,,,,,,,,,,,,,,,,,,,11.042296099942178,None,11.042296099942178,None,space,0.48335019999649376,11.042296099942178,None,,,,,,,,,,,,,,,,,,,,,,,,,,,,,,,,,,,,,,,,,,,,,,,,,,,,,,,,,,,,,,001,2021_Feb_19_1733,GuessTheSound,2020.2.10,60.056453062267565,
,,,,,,,,,,,,,,,,,,,,,,,,,,,,,,,,,,,,,,,,,,,,11.556863900041208,None,space,8.217351100058295,11.556863900041208,None,,,,,,,,,,,,,,,,,,,,,,,,,,,,,,,,,,,,,,,,,,,,,,,,,,,,,,,,001,2021_Feb_19_1733,GuessTheSound,2020.2.10,60.056453062267565,
,,,,,,,,,,,,,,,,,,,,,,,,,,,,,,,,,,,,,,,,,,,,,,,,,,11.556863900041208,None,19.807040799991228,None,19.807040799991228,None,space,0.8985219999449328,19.807040799991228,None,,,,,,,,,,,,,,,,,,,,,,,,,,,,,,,,,,,,,,,,,,,,,,001,2021_Feb_19_1733,GuessTheSound,2020.2.10,60.056453062267565,
Practice/Seagull_A.wav,2,3,NEW,0,0,0,0,,,,,,,,,,,,,,,,,,,,,,,,,,,,,,,,,,,,,,,,,,,,,,,,,,,,,20.890954199945554,None,20.88708670999622,None,20.890954199945554,None,3,1,1.926180199952796,23.3513624999905,None,23.3513624999905,None,23.3513624999905,None,23.3513624999905,None,23.3513624999905,None,25.324103599996306,None,,,,,,,,,,,,,,,,,,,,,,,,,001,2021_Feb_19_1733,GuessTheSound,2020.2.10,60.056453062267565,
Practice/Skid_B.wav,2,3,NEW,0,1,1,1,,,,,,,,,,,,,,,,,,,,,,,,,,,,,,,,,,,,,,,,,,,,,,,,,,,,,26.37477300001774,None,26.371999240037983,None,26.37477300001774,None,3,1,2.9494588999077678,28.492261299979873,None,28.492261299979873,None,28.492261299979873,None,28.492261299979873,None,28.492261299979873,None,31.462602799991146,None,,,,,,,,,,,,,,,,,,,,,,,,,001,2021_Feb_19_1733,GuessTheSound,2020.2.10,60.056453062267565,
Practice/Seagull_A.wav,1,1,OLD,0,2,2,2,,,,,,,,,,,,,,,,,,,,,,,,,,,,,,,,,,,,,,,,,,,,,,,,,,,,,32.49198419996537,None,32.488570420024914,None,32.49198419996537,None,1,1,0.9944638999877498,34.79201760003343,None,34.79201760003343,None,34.79201760003343,None,34.79201760003343,None,34.79201760003343,None,35.80877240002155,None,,,,,,,,,,,,,,,,,,,,,,,,,001,2021_Feb_19_1733,GuessTheSound,2020.2.10,60.056453062267565,
Practice/Gargle_A.wav,2,3,NEW,0,3,3,3,,,,,,,,,,,,,,,,,,,,,,,,,,,,,,,,,,,,,,,,,,,,,,,,,,,,,36.86708749993704,None,36.86911743998062,None,36.86708749993704,None,3,1,0.9136503000045195,39.15927780000493,None,39.15927780000493,None,39.15927780000493,None,39.15927780000493,None,39.15927780000493,None,40.10413240001071,None,,,,,,,,,,,,,,,,,,,,,,,,,001,2021_Feb_19_1733,GuessTheSound,2020.2.10,60.056453062267565,
Practice/Gargle_B.wav,2,2,SIMILAR,0,4,4,4,,,,,,,,,,,,,,,,,,,,,,,,,,,,,,,,,,,,,,,,,,,,,,,,,,,,,41.15818210004363,None,41.15318734003231,None,41.15818210004363,None,2,1,1.2200346000026911,43.234217099961825,None,43.234217099961825,None,43.234217099961825,None,43.234217099961825,None,43.234217099961825,None,44.48588419996668,None,,,,,,,,,,,,,,,,,,,,,,,,,001,2021_Feb_19_1733,GuessTheSound,2020.2.10,60.056453062267565,
,,,,,,,,,,,,,,,,,,,,,,,,,,,,,,,,,,,,,,,,,,,,,,,,,,,,,,,,,,,,,,,,,,,,,,,,,,,,,,,,,45.4871668999549,None,space,5.051422500051558,45.4871668999549,None,,,,,,,,,,,,,,,,,,,001,2021_Feb_19_1733,GuessTheSound,2020.2.10,60.056453062267565,
Initial/NoRepeat/Elephant_A.wav,2,3,NEW,,,,,0,0,0,0,,,,,,,,,,,,,,,,,,,,,,,,,,,,,,,,,,,,,,,,,,,,,,,,,,,,,,,,,,,,,,,,,,,,,,,,,,,,45.4871668999549,None,50.64646840002388,None,52.102540219970976,None,52.10656129999552,None,52.10656129999552,None,55.154486699961126,None,3,1,2.017019800026901,55.154486699961126,None,,001,2021_Feb_19_1733,GuessTheSound,2020.2.10,60.056453062267565,
Initial/NoRepeat/Thunder_A.wav,2,3,NEW,,,,,0,1,1,1,,,,,,,,,,,,,,,,,,,,,,,,,,,,,,,,,,,,,,,,,,,,,,,,,,,,,,,,,,,,,,,,,,,,,,,,,,,,,,57.190444199950434,None,58.71925992001779,None,58.72357979998924,None,58.72357979998924,None,61.72000139998272,None,3,1,0.5851094999816269,61.72000139998272,None,,001,2021_Feb_19_1733,GuessTheSound,2020.2.10,60.056453062267565,
Test/Lures/Chime_B.wav,2,3,NEW,,,,,0,2,2,2,,,,,,,,,,,,,,,,,,,,,,,,,,,,,,,,,,,,,,,,,,,,,,,,,,,,,,,,,,,,,,,,,,,,,,,,,,,,,,62.33578269998543,None,63.8858035400277,None,63.88067520002369,None,63.88067520002369,None,66.70342929998878,None,3,1,0.34796600008849055,66.70342929998878,None,,001,2021_Feb_19_1733,GuessTheSound,2020.2.10,60.056453062267565,
Initial/NoRepeat/Toilet_B.wav,2,3,NEW,,,,,0,3,3,3,,,,,,,,,,,,,,,,,,,,,,,,,,,,,,,,,,,,,,,,,,,,,,,,,,,,,,,,,,,,,,,,,,,,,,,,,,,,,,67.0721716999542,None,68.60239851993975,None,68.60602019994985,None,68.60602019994985,None,71.51981530000921,None,3,1,0.31394460005685687,71.51981530000921,None,,001,2021_Feb_19_1733,GuessTheSound,2020.2.10,60.056453062267565,
Test/Foils/Typing.wav,2,3,NEW,,,,,0,4,4,4,,,,,,,,,,,,,,,,,,,,,,,,,,,,,,,,,,,,,,,,,,,,,,,,,,,,,,,,,,,,,,,,,,,,,,,,,,,,,,71.85221829998773,None,73.40281954002567,None,73.40491149993613,None,73.40491149993613,None,76.2699200999923,None,3,1,0.47333619999699295,76.2699200999923,None,,001,2021_Feb_19_1733,GuessTheSound,2020.2.10,60.056453062267565,
Initial/Repeat/Pour.wav,2,3,NEW,,,,,0,5,5,5,,,,,,,,,,,,,,,,,,,,,,,,,,,,,,,,,,,,,,,,,,,,,,,,,,,,,,,,,,,,,,,,,,,,,,,,,,,,,,76.7697896999307,None,78.30249002993806,None,78.30025269999169,None,78.30025269999169,None,80.86988659994677,None,3,1,1.0034603999229148,80.86988659994677,None,,001,2021_Feb_19_1733,GuessTheSound,2020.2.10,60.056453062267565,
Initial/NoRepeat/Sleighbells_B.wav,2,3,NEW,,,,,0,6,6,6,,,,,,,,,,,,,,,,,,,,,,,,,,,,,,,,,,,,,,,,,,,,,,,,,,,,,,,,,,,,,,,,,,,,,,,,,,,,,,81.90321330004372,None,83.43559982998995,None,83.43118039995898,None,83.43118039995898,None,85.85335069999564,None,3,1,0.6927018999122083,85.85335069999564,None,,001,2021_Feb_19_1733,GuessTheSound,2020.2.10,60.056453062267565,
Initial/NoRepeat/Thunder_A.wav,1,1,OLD,,,,,0,7,7,7,,,,,,,,,,,,,,,,,,,,,,,,,,,,,,,,,,,,,,,,,,,,,,,,,,,,,,,,,,,,,,,,,,,,,,,,,,,,,,86.57031949993689,None,88.0856921100407,None,88.09140819997992,None,88.09140819997992,None,91.08660329994746,None,1,1,0.519396899966523,91.08660329994746,None,,001,2021_Feb_19_1733,GuessTheSound,2020.2.10,60.056453062267565,
Initial/Repeat/Buzz.wav,2,3,NEW,,,,,0,8,8,8,,,,,,,,,,,,,,,,,,,,,,,,,,,,,,,,,,,,,,,,,,,,,,,,,,,,,,,,,,,,,,,,,,,,,,,,,,,,,,91.63644529995508,None,93.152187720011,None,93.1563623000402,None,93.1563623000402,None,95.46970989997499,None,3,1,0.540962400031276,95.46970989997499,None,,001,2021_Feb_19_1733,GuessTheSound,2020.2.10,60.056453062267565,
Initial/NoRepeat/Baby_B.wav,2,3,NEW,,,,,0,9,9,9,,,,,,,,,,,,,,,,,,,,,,,,,,,,,,,,,,,,,,,,,,,,,,,,,,,,,,,,,,,,,,,,,,,,,,,,,,,,,,96.03567479993217,None,97.56873763002223,None,97.56621710001491,None,97.56621710001491,None,100.6031339999754,None,3,1,0.014643700094893575,100.6031339999754,None,,001,2021_Feb_19_1733,GuessTheSound,2020.2.10,60.056453062267565,
Initial/NoRepeat/Mosquito_B.wav,2,3,NEW,,,,,0,10,10,10,,,,,,,,,,,,,,,,,,,,,,,,,,,,,,,,,,,,,,,,,,,,,,,,,,,,,,,,,,,,,,,,,,,,,,,,,,,,,,100.63578080001753,None,102.15204912000337,None,102.1589312000433,None,102.1589312000433,None,104.30283119995147,None,3,1,0.45360480004455894,104.30283119995147,None,,001,2021_Feb_19_1733,GuessTheSound,2020.2.10,60.056453062267565,
Test/Foils/Typing.wav,1,1,OLD,,,,,0,11,11,11,,,,,,,,,,,,,,,,,,,,,,,,,,,,,,,,,,,,,,,,,,,,,,,,,,,,,,,,,,,,,,,,,,,,,,,,,,,,,,104.7856472999556,None,106.30194212002681,None,106.29654310003389,None,106.29654310003389,None,109.15288750000764,None,1,1,0.4391470999689773,109.15288750000764,None,,001,2021_Feb_19_1733,GuessTheSound,2020.2.10,60.056453062267565,
Initial/Doubled/Chime_A.wav,2,2,SIMILAR,,,,,0,12,12,12,,,,,,,,,,,,,,,,,,,,,,,,,,,,,,,,,,,,,,,,,,,,,,,,,,,,,,,,,,,,,,,,,,,,,,,,,,,,,,109.6185691000428,None,111.15197842997732,None,111.14826409996022,None,111.14826409996022,None,113.96934319997672,None,1,0,0.5448642000555992,113.96934319997672,None,,001,2021_Feb_19_1733,GuessTheSound,2020.2.10,60.056453062267565,
Test/Foils/DialTone.wav,2,3,NEW,,,,,0,13,13,13,,,,,,,,,,,,,,,,,,,,,,,,,,,,,,,,,,,,,,,,,,,,,,,,,,,,,,,,,,,,,,,,,,,,,,,,,,,,,,114.53510440001264,None,116.06859132995596,None,116.06405459996313,None,116.06405459996313,None,118.56933510000817,None,3,1,0.3691259999759495,118.56933510000817,None,,001,2021_Feb_19_1733,GuessTheSound,2020.2.10,60.056453062267565,
Elephant_B.wav,2,2,SIMILAR,,,,,0,14,14,14,,,,,,,,,,,,,,,,,,,,,,,,,,,,,,,,,,,,,,,,,,,,,,,,,,,,,,,,,,,,,,,,,,,,,,,,,,,,,,118.95674860000145,None,120.48528382002843,None,120.49221109994687,None,120.49221109994687,None,123.30271089996677,None,2,1,1.0155719000613317,123.30271089996677,None,,001,2021_Feb_19_1733,GuessTheSound,2020.2.10,60.056453062267565,
Initial/Doubled/Writing_A.wav,2,3,NEW,,,,,0,15,15,15,,,,,,,,,,,,,,,,,,,,,,,,,,,,,,,,,,,,,,,,,,,,,,,,,,,,,,,,,,,,,,,,,,,,,,,,,,,,,,124.33664909994695,None,125.86905571999961,None,125.87492049997672,None,125.87492049997672,None,128.5692471000366,None,3,1,0.31683170003816485,128.5692471000366,None,,001,2021_Feb_19_1733,GuessTheSound,2020.2.10,60.056453062267565,
Initial/NoRepeat/Faucet_A.wav,2,3,NEW,,,,,0,16,16,16,,,,,,,,,,,,,,,,,,,,,,,,,,,,,,,,,,,,,,,,,,,,,,,,,,,,,,,,,,,,,,,,,,,,,,,,,,,,,,128.90634849993512,None,130.43517601997593,None,130.43893169995863,None,130.43893169995863,None,132.91913359996397,None,3,1,0.7067123999586329,132.91913359996397,None,,001,2021_Feb_19_1733,GuessTheSound,2020.2.10,60.056453062267565,
Initial/NoRepeat/Toilet_B.wav,1,1,OLD,,,,,0,17,17,17,,,,,,,,,,,,,,,,,,,,,,,,,,,,,,,,,,,,,,,,,,,,,,,,,,,,,,,,,,,,,,,,,,,,,,,,,,,,,,133.65379280003253,None,135.16853631000268,None,135.17632760002743,None,135.17632760002743,None,138.102703499957,None,1,1,0.38757230003830045,138.102703499957,None,,001,2021_Feb_19_1733,GuessTheSound,2020.2.10,60.056453062267565,
Initial/NoRepeat/Sleighbells_B.wav,1,1,OLD,,,,,0,18,18,18,,,,,,,,,,,,,,,,,,,,,,,,,,,,,,,,,,,,,,,,,,,,,,,,,,,,,,,,,,,,,,,,,,,,,,,,,,,,,,138.5182639999548,None,140.03513011995238,None,140.02830659993924,None,140.02830659993924,None,142.4527012000326,None,1,1,0.6496202000416815,142.4527012000326,None,,001,2021_Feb_19_1733,GuessTheSound,2020.2.10,60.056453062267565,
Test/Foils/Wind_B.wav,2,3,NEW,,,,,0,19,19,19,,,,,,,,,,,,,,,,,,,,,,,,,,,,,,,,,,,,,,,,,,,,,,,,,,,,,,,,,,,,,,,,,,,,,,,,,,,,,,143.12274459993932,None,144.68496683998964,None,144.68547509994823,None,144.68547509994823,None,147.41904519998934,None,3,1,0.4024914000183344,147.41904519998934,None,,001,2021_Feb_19_1733,GuessTheSound,2020.2.10,60.056453062267565,
Pour_C.wav,2,2,SIMILAR,,,,,0,20,20,20,,,,,,,,,,,,,,,,,,,,,,,,,,,,,,,,,,,,,,,,,,,,,,,,,,,,,,,,,,,,,,,,,,,,,,,,,,,,,,147.85157159995288,None,149.3684811199317,None,149.37638889998198,None,149.37638889998198,None,152.38587819994427,None,2,1,0.6755452000070363,152.38587819994427,None,,001,2021_Feb_19_1733,GuessTheSound,2020.2.10,60.056453062267565,
Initial/Repeat/Buzz.wav,1,1,OLD,,,,,0,21,21,21,,,,,,,,,,,,,,,,,,,,,,,,,,,,,,,,,,,,,,,,,,,,,,,,,,,,,,,,,,,,,,,,,,,,,,,,,,,,,,153.08669279993046,None,154.60177740993677,None,154.61017689993605,None,154.61017689993605,None,156.91920589993242,None,1,1,0.5624861000105739,156.91920589993242,None,,001,2021_Feb_19_1733,GuessTheSound,2020.2.10,60.056453062267565,
Baby_A.wav,2,2,SIMILAR,,,,,0,22,22,22,,,,,,,,,,,,,,,,,,,,,,,,,,,,,,,,,,,,,,,,,,,,,,,,,,,,,,,,,,,,,,,,,,,,,,,,,,,,,,157.50225419993512,None,159.01830582001713,None,159.01630909997039,None,159.01630909997039,None,161.6190743999323,None,2,1,0.5832721999613568,161.6190743999323,None,,001,2021_Feb_19_1733,GuessTheSound,2020.2.10,60.056453062267565,
Writing_C.wav,2,2,SIMILAR,,,,,0,23,23,23,,,,,,,,,,,,,,,,,,,,,,,,,,,,,,,,,,,,,,,,,,,,,,,,,,,,,,,,,,,,,,,,,,,,,,,,,,,,,,162.2184239999624,None,163.751451330015,None,163.74856620002538,None,163.74856620002538,None,166.46899620001204,None,2,1,1.0753658999456093,166.46899620001204,None,,001,2021_Feb_19_1733,GuessTheSound,2020.2.10,60.056453062267565,
Initial/NoRepeat/Mosquito_B.wav,1,1,OLD,,,,,0,24,24,24,,,,,,,,,,,,,,,,,,,,,,,,,,,,,,,,,,,,,,,,,,,,,,,,,,,,,,,,,,,,,,,,,,,,,,,,,,,,,,167.56807559996378,None,169.0681584099424,None,169.0761879000347,None,169.0761879000347,None,171.2190118000144,None,2,0,2.530335700022988,171.2190118000144,None,,001,2021_Feb_19_1733,GuessTheSound,2020.2.10,60.056453062267565,
Initial/Doubled/Cough_A.wav,2,3,NEW,,,,,0,25,25,25,,,,,,,,,,,,,,,,,,,,,,,,,,,,,,,,,,,,,,,,,,,,,,,,,,,,,,,,,,,,,,,,,,,,,,,,,,,,,,173.76897880004253,None,175.2847790199565,None,175.2794530999381,None,175.2794530999381,None,176.98579269996844,None,3,1,0.49597139994148165,176.98579269996844,None,,001,2021_Feb_19_1733,GuessTheSound,2020.2.10,60.056453062267565,
Test/Foils/DialTone.wav,1,1,OLD,,,,,0,26,26,26,,,,,,,,,,,,,,,,,,,,,,,,,,,,,,,,,,,,,,,,,,,,,,,,,,,,,,,,,,,,,,,,,,,,,,,,,,,,,,177.50188080000225,None,179.00123251000187,None,179.00983400002588,None,179.00983400002588,None,181.5187511999393,None,1,1,0.5237438000040129,181.5187511999393,None,,001,2021_Feb_19_1733,GuessTheSound,2020.2.10,60.056453062267565,
Test/Foils/Heartbeat.wav,2,3,NEW,,,,,0,27,27,27,,,,,,,,,,,,,,,,,,,,,,,,,,,,,,,,,,,,,,,,,,,,,,,,,,,,,,,,,,,,,,,,,,,,,,,,,,,,,,182.0678910999559,None,183.58465331997724,None,183.5903642999474,None,183.5903642999474,None,186.00215349998325,None,3,1,0.4661596000660211,186.00215349998325,None,,001,2021_Feb_19_1733,GuessTheSound,2020.2.10,60.056453062267565,
Initial/Repeat/IceDrop.wav,2,3,NEW,,,,,0,28,28,28,,,,,,,,,,,,,,,,,,,,,,,,,,,,,,,,,,,,,,,,,,,,,,,,,,,,,,,,,,,,,,,,,,,,,,,,,,,,,,186.4842753999401,None,188.00102031994612,None,188.00904379994608,None,188.00904379994608,None,190.76878489996307,None,3,1,0.4857898000627756,190.76878489996307,None,,001,2021_Feb_19_1733,GuessTheSound,2020.2.10,60.056453062267565,
Bird_B.wav,2,3,NEW,,,,,0,29,29,29,,,,,,,,,,,,,,,,,,,,,,,,,,,,,,,,,,,,,,,,,,,,,,,,,,,,,,,,,,,,,,,,,,,,,,,,,,,,,,191.28471869998612,None,192.80121671997478,None,192.80429000000004,None,192.80429000000004,None,194.53536440001335,None,3,1,0.7406600000103936,194.53536440001335,None,,001,2021_Feb_19_1733,GuessTheSound,2020.2.10,60.056453062267565,
Initial/NoRepeat/Puff_A.wav,2,3,NEW,,,,,0,30,30,30,,,,,,,,,,,,,,,,,,,,,,,,,,,,,,,,,,,,,,,,,,,,,,,,,,,,,,,,,,,,,,,,,,,,,,,,,,,,,,195.30415999994148,None,196.83453482000624,None,196.83412959997077,None,196.83412959997077,None,198.53508790000342,None,3,1,0.5985456999624148,198.53508790000342,None,,001,2021_Feb_19_1733,GuessTheSound,2020.2.10,60.056453062267565,
Faucet_B.wav,2,2,SIMILAR,,,,,0,31,31,31,,,,,,,,,,,,,,,,,,,,,,,,,,,,,,,,,,,,,,,,,,,,,,,,,,,,,,,,,,,,,,,,,,,,,,,,,,,,,,199.15200370003004,None,200.66793011997362,None,200.66620300000068,None,200.66620300000068,None,203.4685597999487,None,2,1,1.0426327999448404,203.4685597999487,None,,001,2021_Feb_19_1733,GuessTheSound,2020.2.10,60.056453062267565,
Initial/NoRepeat/Duck_A.wav,2,3,NEW,,,,,0,32,32,32,,,,,,,,,,,,,,,,,,,,,,,,,,,,,,,,,,,,,,,,,,,,,,,,,,,,,,,,,,,,,,,,,,,,,,,,,,,,,,204.53815759997815,None,206.06791802002118,None,206.070956200012,None,206.070956200012,None,208.16852089995518,None,3,1,0.4089092999929562,208.16852089995518,None,,001,2021_Feb_19_1733,GuessTheSound,2020.2.10,60.056453062267565,
Initial/Doubled/Laugh_A.wav,2,3,NEW,,,,,0,33,33,33,,,,,,,,,,,,,,,,,,,,,,,,,,,,,,,,,,,,,,,,,,,,,,,,,,,,,,,,,,,,,,,,,,,,,,,,,,,,,,208.60188940004446,None,210.13443002999995,None,210.12749430001713,None,210.12749430001713,None,212.83439249999356,None,3,1,0.5538785000098869,212.83439249999356,None,,001,2021_Feb_19_1733,GuessTheSound,2020.2.10,60.056453062267565,
Test/Foils/Wind_B.wav,1,1,OLD,,,,,0,34,34,34,,,,,,,,,,,,,,,,,,,,,,,,,,,,,,,,,,,,,,,,,,,,,,,,,,,,,,,,,,,,,,,,,,,,,,,,,,,,,,213.41807000001427,None,214.93440472004005,None,214.92969709995668,None,214.92969709995668,None,217.6684620999731,None,1,1,1.2091734000714496,217.6684620999731,None,,001,2021_Feb_19_1733,GuessTheSound,2020.2.10,60.056453062267565,
Initial/Doubled/Chicken_A.wav,2,3,NEW,,,,,0,35,35,35,,,,,,,,,,,,,,,,,,,,,,,,,,,,,,,,,,,,,,,,,,,,,,,,,,,,,,,,,,,,,,,,,,,,,,,,,,,,,,218.90276169998106,None,220.43437132001856,None,220.4333983999677,None,220.4333983999677,None,222.11835210002027,None,3,1,0.568914599949494,222.11835210002027,None,,001,2021_Feb_19_1733,GuessTheSound,2020.2.10,60.056453062267565,
Test/Lures/Guitar_B.wav,2,3,NEW,,,,,0,36,36,36,,,,,,,,,,,,,,,,,,,,,,,,,,,,,,,,,,,,,,,,,,,,,,,,,,,,,,,,,,,,,,,,,,,,,,,,,,,,,,222.71748520003166,None,224.2340836199699,None,224.24475499999244,None,224.24475499999244,None,226.56857609993313,None,3,1,0.2968266000971198,226.56857609993313,None,,001,2021_Feb_19_1733,GuessTheSound,2020.2.10,60.056453062267565,
Initial/Repeat/Cello.wav,2,3,NEW,,,,,0,37,37,37,,,,,,,,,,,,,,,,,,,,,,,,,,,,,,,,,,,,,,,,,,,,,,,,,,,,,,,,,,,,,,,,,,,,,,,,,,,,,,226.88551379996352,None,228.41762531998103,None,228.42475809995085,None,228.42475809995085,None,231.3182925999863,None,3,1,0.25486510002519935,231.3182925999863,None,,001,2021_Feb_19_1733,GuessTheSound,2020.2.10,60.056453062267565,
Test/Foils/Heartbeat.wav,1,1,OLD,,,,,0,38,38,38,,,,,,,,,,,,,,,,,,,,,,,,,,,,,,,,,,,,,,,,,,,,,,,,,,,,,,,,,,,,,,,,,,,,,,,,,,,,,,231.60075620003045,None,233.11761081994047,None,233.11287950002588,None,233.11287950002588,None,235.518157399958,None,1,1,0.40751829999499023,235.518157399958,None,,001,2021_Feb_19_1733,GuessTheSound,2020.2.10,60.056453062267565,
Initial/Repeat/Airplane_B.wav,2,3,NEW,,,,,0,39,39,39,,,,,,,,,,,,,,,,,,,,,,,,,,,,,,,,,,,,,,,,,,,,,,,,,,,,,,,,,,,,,,,,,,,,,,,,,,,,,,235.9519654000178,None,237.48403002002743,None,237.49189349997323,None,237.49189349997323,None,240.10156179999467,None,3,1,0.37743959994986653,240.10156179999467,None,,001,2021_Feb_19_1733,GuessTheSound,2020.2.10,60.056453062267565,
Cough_E.wav,2,2,SIMILAR,,,,,0,40,40,40,,,,,,,,,,,,,,,,,,,,,,,,,,,,,,,,,,,,,,,,,,,,,,,,,,,,,,,,,,,,,,,,,,,,,,,,,,,,,,240.501547700027,None,242.01730501996354,None,242.0184573000297,None,242.0184573000297,None,243.75136230001226,None,2,1,0.5711961999768391,243.75136230001226,None,,001,2021_Feb_19_1733,GuessTheSound,2020.2.10,60.056453062267565,
Test/Foils/Bird.wav,2,2,SIMILAR,,,,,0,41,41,41,,,,,,,,,,,,,,,,,,,,,,,,,,,,,,,,,,,,,,,,,,,,,,,,,,,,,,,,,,,,,,,,,,,,,,,,,,,,,,244.3517836999381,None,245.88385431999342,None,245.88813860004302,None,245.88813860004302,None,248.60140919999685,None,2,1,0.6243874999927357,248.60140919999685,None,,001,2021_Feb_19_1733,GuessTheSound,2020.2.10,60.056453062267565,
Initial/Repeat/Trumpet_B.wav,2,3,NEW,,,,,0,42,42,42,,,,,,,,,,,,,,,,,,,,,,,,,,,,,,,,,,,,,,,,,,,,,,,,,,,,,,,,,,,,,,,,,,,,,,,,,,,,,,249.25246859993786,None,250.7838098200271,None,250.7869078000076,None,250.7869078000076,None,253.08473140001297,None,3,1,0.6325775999575853,253.08473140001297,None,,001,2021_Feb_19_1733,GuessTheSound,2020.2.10,60.056453062267565,
Initial/Repeat/IceDrop.wav,1,1,OLD,,,,,0,43,43,43,,,,,,,,,,,,,,,,,,,,,,,,,,,,,,,,,,,,,,,,,,,,,,,,,,,,,,,,,,,,,,,,,,,,,,,,,,,,,,253.736865999992,None,255.26731002000162,None,255.26089349994436,None,255.26089349994436,None,258.0179177999962,None,1,1,0.3854624000377953,258.0179177999962,None,,001,2021_Feb_19_1733,GuessTheSound,2020.2.10,60.056453062267565,
Initial/Repeat/Sneeze_B.wav,2,3,NEW,,,,,0,44,44,44,,,,,,,,,,,,,,,,,,,,,,,,,,,,,,,,,,,,,,,,,,,,,,,,,,,,,,,,,,,,,,,,,,,,,,,,,,,,,,258.4182467999635,None,259.9504532200051,None,259.9517285999609,None,259.9517285999609,None,261.1846784999361,None,3,1,1.542336400016211,261.1846784999361,None,,001,2021_Feb_19_1733,GuessTheSound,2020.2.10,60.056453062267565,
Initial/NoRepeat/Puff_A.wav,1,1,OLD,,,,,0,45,45,45,,,,,,,,,,,,,,,,,,,,,,,,,,,,,,,,,,,,,,,,,,,,,,,,,,,,,,,,,,,,,,,,,,,,,,,,,,,,,,262.7522649000166,None,264.26708050995364,None,264.2728892000159,None,264.2728892000159,None,265.9681312999455,None,1,1,0.49506439990364015,265.9681312999455,None,,001,2021_Feb_19_1733,GuessTheSound,2020.2.10,60.056453062267565,
Snore_A.wav,2,3,NEW,,,,,0,46,46,46,,,,,,,,,,,,,,,,,,,,,,,,,,,,,,,,,,,,,,,,,,,,,,,,,,,,,,,,,,,,,,,,,,,,,,,,,,,,,,266.48555570002645,None,268.01716262004334,None,268.0236341999844,None,268.0236341999844,None,270.78469919995405,None,3,1,0.6860915999859571,270.78469919995405,None,,001,2021_Feb_19_1733,GuessTheSound,2020.2.10,60.056453062267565,
Test/Lures/Guitar_B.wav,1,1,OLD,,,,,0,47,47,47,,,,,,,,,,,,,,,,,,,,,,,,,,,,,,,,,,,,,,,,,,,,,,,,,,,,,,,,,,,,,,,,,,,,,,,,,,,,,,271.5001981999958,None,273.01687661996107,None,273.0102921000216,None,273.0102921000216,None,275.33466699998826,None,1,1,0.332524299970828,275.33466699998826,None,,001,2021_Feb_19_1733,GuessTheSound,2020.2.10,60.056453062267565,
Initial/Doubled/Cat_A.wav,2,3,NEW,,,,,0,48,48,48,,,,,,,,,,,,,,,,,,,,,,,,,,,,,,,,,,,,,,,,,,,,,,,,,,,,,,,,,,,,,,,,,,,,,,,,,,,,,,275.6874381999951,None,277.21715022001877,None,277.2135156999575,None,277.2135156999575,None,278.63425579993054,None,3,1,0.4477784000337124,278.63425579993054,None,,001,2021_Feb_19_1733,GuessTheSound,2020.2.10,60.056453062267565,
Initial/Repeat/Whistle_A.wav,2,3,NEW,,,,,0,49,49,49,,,,,,,,,,,,,,,,,,,,,,,,,,,,,,,,,,,,,,,,,,,,,,,,,,,,,,,,,,,,,,,,,,,,,,,,,,,,,,279.1019346000394,None,280.6337024200009,None,280.62686369998846,None,280.62686369998846,None,282.11780390003696,None,3,1,0.42065969994291663,282.11780390003696,None,,001,2021_Feb_19_1733,GuessTheSound,2020.2.10,60.056453062267565,
Duck_B.wav,2,2,SIMILAR,,,,,0,50,50,50,,,,,,,,,,,,,,,,,,,,,,,,,,,,,,,,,,,,,,,,,,,,,,,,,,,,,,,,,,,,,,,,,,,,,,,,,,,,,,282.5667558000423,None,284.08366762003857,None,284.0858870999655,None,284.0858870999655,None,285.8009415999986,None,3,0,0.9174668999621645,285.8009415999986,None,,001,2021_Feb_19_1733,GuessTheSound,2020.2.10,60.056453062267565,
Laugh_D.wav,2,2,SIMILAR,,,,,0,51,51,51,,,,,,,,,,,,,,,,,,,,,,,,,,,,,,,,,,,,,,,,,,,,,,,,,,,,,,,,,,,,,,,,,,,,,,,,,,,,,,286.73461990000214,None,288.26697261999357,None,288.27051059994847,None,288.27051059994847,None,291.2008785000071,None,2,1,0.6232037000590935,291.2008785000071,None,,001,2021_Feb_19_1733,GuessTheSound,2020.2.10,60.056453062267565,
Initial/Doubled/Chicken_A.wav,1,1,OLD,,,,,0,52,52,52,,,,,,,,,,,,,,,,,,,,,,,,,,,,,,,,,,,,,,,,,,,,,,,,,,,,,,,,,,,,,,,,,,,,,,,,,,,,,,291.8507627999643,None,293.35032181002896,None,293.358668699977,None,293.358668699977,None,295.03439569997136,None,1,1,0.7589059000601992,295.03439569997136,None,,001,2021_Feb_19_1733,GuessTheSound,2020.2.10,60.056453062267565,
Initial/Repeat/Cello.wav,1,1,OLD,,,,,0,53,53,53,,,,,,,,,,,,,,,,,,,,,,,,,,,,,,,,,,,,,,,,,,,,,,,,,,,,,,,,,,,,,,,,,,,,,,,,,,,,,,295.81747050001286,None,297.3334843200398,None,297.3278141999617,None,297.3278141999617,None,300.2344224000117,None,1,1,0.3085753000341356,300.2344224000117,None,,001,2021_Feb_19_1733,GuessTheSound,2020.2.10,60.056453062267565,
Test/Foils/Slurp.wav,2,3,NEW,,,,,0,54,54,54,,,,,,,,,,,,,,,,,,,,,,,,,,,,,,,,,,,,,,,,,,,,,,,,,,,,,,,,,,,,,,,,,,,,,,,,,,,,,,300.56738869997207,None,302.1166302400175,None,302.11672579997685,None,302.11672579997685,None,304.50086939998437,None,3,1,3.432230999926105,304.50086939998437,None,,001,2021_Feb_19_1733,GuessTheSound,2020.2.10,60.056453062267565,
Initial/Doubled/Chomp_A.wav,2,3,NEW,,,,,0,55,55,55,,,,,,,,,,,,,,,,,,,,,,,,,,,,,,,,,,,,,,,,,,,,,,,,,,,,,,,,,,,,,,,,,,,,,,,,,,,,,,307.9524951999774,None,309.49962033004266,None,309.4978062999435,None,309.4978062999435,None,312.18416019994766,None,3,1,0.5146979000419378,312.18416019994766,None,,001,2021_Feb_19_1733,GuessTheSound,2020.2.10,60.056453062267565,
Initial/Repeat/Airplane_B.wav,1,1,OLD,,,,,0,56,56,56,,,,,,,,,,,,,,,,,,,,,,,,,,,,,,,,,,,,,,,,,,,,,,,,,,,,,,,,,,,,,,,,,,,,,,,,,,,,,,312.7201048999559,None,314.24979971996504,None,314.24469369999133,None,314.24469369999133,None,316.8509184999857,None,1,1,0.5286606000736356,316.8509184999857,None,,001,2021_Feb_19_1733,GuessTheSound,2020.2.10,60.056453062267565,
Initial/Doubled/Bubbles_A.wav,2,3,NEW,,,,,0,57,57,57,,,,,,,,,,,,,,,,,,,,,,,,,,,,,,,,,,,,,,,,,,,,,,,,,,,,,,,,,,,,,,,,,,,,,,,,,,,,,,317.4011396999704,None,318.9331915199989,None,318.9319903999567,None,318.9319903999567,None,321.3505436000414,None,3,1,0.4654894999694079,321.3505436000414,None,,001,2021_Feb_19_1733,GuessTheSound,2020.2.10,60.056453062267565,
Initial/Repeat/Trumpet_B.wav,1,1,OLD,,,,,0,58,58,58,,,,,,,,,,,,,,,,,,,,,,,,,,,,,,,,,,,,,,,,,,,,,,,,,,,,,,,,,,,,,,,,,,,,,,,,,,,,,,321.83675749995746,None,323.3499535100185,None,323.36081929993816,None,323.36081929993816,None,325.6674659999553,None,1,1,0.45650719990953803,325.6674659999553,None,,001,2021_Feb_19_1733,GuessTheSound,2020.2.10,60.056453062267565,
Initial/Repeat/Cup.wav,2,3,NEW,,,,,0,59,59,59,,,,,,,,,,,,,,,,,,,,,,,,,,,,,,,,,,,,,,,,,,,,,,,,,,,,,,,,,,,,,,,,,,,,,,,,,,,,,,326.15155299997423,None,327.6997215299518,None,327.70726549997926,None,327.70726549997926,None,329.03415640001185,None,3,1,0.48835480003617704,329.03415640001185,None,,001,2021_Feb_19_1733,GuessTheSound,2020.2.10,60.056453062267565,
Snore_C.wav,2,2,SIMILAR,,,,,0,60,60,60,,,,,,,,,,,,,,,,,,,,,,,,,,,,,,,,,,,,,,,,,,,,,,,,,,,,,,,,,,,,,,,,,,,,,,,,,,,,,,329.5496734000044,None,331.0663013199344,None,331.0599092999473,None,331.0599092999473,None,333.95033250004053,None,3,0,0.5154424000065774,333.95033250004053,None,,001,2021_Feb_19_1733,GuessTheSound,2020.2.10,60.056453062267565,
Test/Foils/Airhorn.wav,2,3,NEW,,,,,0,61,61,61,,,,,,,,,,,,,,,,,,,,,,,,,,,,,,,,,,,,,,,,,,,,,,,,,,,,,,,,,,,,,,,,,,,,,,,,,,,,,,334.4866749999346,None,336.0163901199819,None,336.01737539994065,None,336.01737539994065,None,338.5831957999617,None,3,1,0.42088130000047386,338.5831957999617,None,,001,2021_Feb_19_1733,GuessTheSound,2020.2.10,60.056453062267565,
Whistle_C.wav,2,2,SIMILAR,,,,,0,62,62,62,,,,,,,,,,,,,,,,,,,,,,,,,,,,,,,,,,,,,,,,,,,,,,,,,,,,,,,,,,,,,,,,,,,,,,,,,,,,,,339.03169570001774,None,340.5487210199469,None,340.55415280000307,None,340.55415280000307,None,343.300284500001,None,2,1,0.8924566999776289,343.300284500001,None,,001,2021_Feb_19_1733,GuessTheSound,2020.2.10,60.056453062267565,
Initial/Repeat/Sneeze_B.wav,1,1,OLD,,,,,0,63,63,63,,,,,,,,,,,,,,,,,,,,,,,,,,,,,,,,,,,,,,,,,,,,,,,,,,,,,,,,,,,,,,,,,,,,,,,,,,,,,,344.21738919999916,None,345.73319561003007,None,345.7369849999668,None,345.7369849999668,None,346.96720159996767,None,1,1,0.8219327999977395,346.96720159996767,None,,001,2021_Feb_19_1733,GuessTheSound,2020.2.10,60.056453062267565,
Initial/Doubled/Cat_A.wav,1,1,OLD,,,,,0,64,64,64,,,,,,,,,,,,,,,,,,,,,,,,,,,,,,,,,,,,,,,,,,,,,,,,,,,,,,,,,,,,,,,,,,,,,,,,,,,,,,347.8159810999641,None,349.3162114100181,None,349.32614949997514,None,349.32614949997514,None,350.75038820004556,None,1,1,0.6530136000365019,350.75038820004556,None,,001,2021_Feb_19_1733,GuessTheSound,2020.2.10,60.056453062267565,
Phone_D.wav,2,3,NEW,,,,,0,65,65,65,,,,,,,,,,,,,,,,,,,,,,,,,,,,,,,,,,,,,,,,,,,,,,,,,,,,,,,,,,,,,,,,,,,,,,,,,,,,,,351.43250490003265,None,352.9495945199858,None,352.95229849999305,None,352.95229849999305,None,355.5000697999494,None,3,1,0.23569889995269477,355.5000697999494,None,,001,2021_Feb_19_1733,GuessTheSound,2020.2.10,60.056453062267565,
Initial/Repeat/Bagpipe.wav,2,3,NEW,,,,,0,66,66,66,,,,,,,,,,,,,,,,,,,,,,,,,,,,,,,,,,,,,,,,,,,,,,,,,,,,,,,,,,,,,,,,,,,,,,,,,,,,,,355.7512430000352,None,357.2991311299731,None,357.29907609999646,None,357.29907609999646,None,359.6836481000064,None,3,1,0.3778629000298679,359.6836481000064,None,,001,2021_Feb_19_1733,GuessTheSound,2020.2.10,60.056453062267565,
Chomp_C.wav,2,2,SIMILAR,,,,,0,67,67,67,,,,,,,,,,,,,,,,,,,,,,,,,,,,,,,,,,,,,,,,,,,,,,,,,,,,,,,,,,,,,,,,,,,,,,,,,,,,,,360.08445429999847,None,361.616181119997,None,361.6175443000393,None,361.6175443000393,None,364.3834506999701,None,2,1,0.6616915001068264,364.3834506999701,None,,001,2021_Feb_19_1733,GuessTheSound,2020.2.10,60.056453062267565,
Test/Foils/Slurp.wav,1,1,OLD,,,,,0,68,68,68,,,,,,,,,,,,,,,,,,,,,,,,,,,,,,,,,,,,,,,,,,,,,,,,,,,,,,,,,,,,,,,,,,,,,,,,,,,,,,365.0673261999618,None,366.5813894099905,None,366.5887629999779,None,366.5887629999779,None,368.96697760000825,None,1,1,0.5498694999841973,368.96697760000825,None,,001,2021_Feb_19_1733,GuessTheSound,2020.2.10,60.056453062267565,
Test/Foils/Bowlingpins.wav,2,3,NEW,,,,,0,69,69,69,,,,,,,,,,,,,,,,,,,,,,,,,,,,,,,,,,,,,,,,,,,,,,,,,,,,,,,,,,,,,,,,,,,,,,,,,,,,,,369.5336050000042,None,371.04948861997104,None,371.0477383999387,None,371.0477383999387,None,373.48354299995117,None,3,1,0.3409965999890119,373.48354299995117,None,,001,2021_Feb_19_1733,GuessTheSound,2020.2.10,60.056453062267565,
Initial/Doubled/Bubbles_A.wav,1,1,OLD,,,,,0,70,70,70,,,,,,,,,,,,,,,,,,,,,,,,,,,,,,,,,,,,,,,,,,,,,,,,,,,,,,,,,,,,,,,,,,,,,,,,,,,,,,373.849814599962,None,375.34905121001646,None,375.3574782999931,None,375.3574782999931,None,377.78349379997235,None,1,1,0.37000780005473644,377.78349379997235,None,,001,2021_Feb_19_1733,GuessTheSound,2020.2.10,60.056453062267565,
Initial/NoRepeat/Cow.wav,2,3,NEW,,,,,0,71,71,71,,,,,,,,,,,,,,,,,,,,,,,,,,,,,,,,,,,,,,,,,,,,,,,,,,,,,,,,,,,,,,,,,,,,,,,,,,,,,,378.1823130999692,None,379.69946991996835,None,379.7009711000137,None,379.7009711000137,None,381.53334059996996,None,3,1,0.3504019998945296,381.53334059996996,None,,001,2021_Feb_19_1733,GuessTheSound,2020.2.10,60.056453062267565,
Initial/Doubled/Siren_A.wav,2,3,NEW,,,,,0,72,72,72,,,,,,,,,,,,,,,,,,,,,,,,,,,,,,,,,,,,,,,,,,,,,,,,,,,,,,,,,,,,,,,,,,,,,,,,,,,,,,381.90007249999326,None,383.4324653199408,None,383.43685409997124,None,383.43685409997124,None,386.2332288000034,None,3,1,0.18129089998546988,386.2332288000034,None,,001,2021_Feb_19_1733,GuessTheSound,2020.2.10,60.056453062267565,
Initial/Repeat/Crow_B.wav,2,3,NEW,,,,,0,73,73,73,,,,,,,,,,,,,,,,,,,,,,,,,,,,,,,,,,,,,,,,,,,,,,,,,,,,,,,,,,,,,,,,,,,,,,,,,,,,,,386.4351840999443,None,387.9657217199681,None,387.96705029997975,None,387.96705029997975,None,390.0333045000443,None,3,1,0.8759635000023991,390.0333045000443,None,,001,2021_Feb_19_1733,GuessTheSound,2020.2.10,60.056453062267565,
Initial/Repeat/Bagpipe.wav,1,1,OLD,,,,,0,74,74,74,,,,,,,,,,,,,,,,,,,,,,,,,,,,,,,,,,,,,,,,,,,,,,,,,,,,,,,,,,,,,,,,,,,,,,,,,,,,,,390.9318384999642,None,392.4326456099865,None,392.4427402999718,None,392.4427402999718,None,394.81669919996057,None,1,1,0.8858020999468863,394.81669919996057,None,,001,2021_Feb_19_1733,GuessTheSound,2020.2.10,60.056453062267565,
Initial/Repeat/Cup.wav,1,1,OLD,,,,,0,75,75,75,,,,,,,,,,,,,,,,,,,,,,,,,,,,,,,,,,,,,,,,,,,,,,,,,,,,,,,,,,,,,,,,,,,,,,,,,,,,,,395.73297819995787,None,397.2325272099464,None,397.24217909993604,None,397.24217909993604,None,398.5666598000098,None,1,1,0.3977815000107512,398.5666598000098,None,,001,2021_Feb_19_1733,GuessTheSound,2020.2.10,60.056453062267565,
Test/Foils/Bullfrog.wav,2,3,NEW,,,,,0,76,76,76,,,,,,,,,,,,,,,,,,,,,,,,,,,,,,,,,,,,,,,,,,,,,,,,,,,,,,,,,,,,,,,,,,,,,,,,,,,,,,398.9866064999951,None,400.54911113998384,None,400.5460154999746,None,400.5460154999746,None,403.4667129999725,None,1,0,0.3742594999494031,403.4667129999725,None,,001,2021_Feb_19_1733,GuessTheSound,2020.2.10,60.056453062267565,
Initial/Repeat/Phone_A.wav,2,2,SIMILAR,,,,,0,77,77,77,,,,,,,,,,,,,,,,,,,,,,,,,,,,,,,,,,,,,,,,,,,,,,,,,,,,,,,,,,,,,,,,,,,,,,,,,,,,,,403.86738239997067,None,405.3988608199404,None,405.4039500999497,None,405.4039500999497,None,408.34973140002694,None,3,0,0.7535483000101522,408.34973140002694,None,,001,2021_Feb_19_1733,GuessTheSound,2020.2.10,60.056453062267565,
Initial/Doubled/HairDryer_A.wav,2,3,NEW,,,,,0,78,78,78,,,,,,,,,,,,,,,,,,,,,,,,,,,,,,,,,,,,,,,,,,,,,,,,,,,,,,,,,,,,,,,,,,,,,,,,,,,,,,409.13329379993957,None,410.6659897300298,None,410.65930229995865,None,410.65930229995865,None,413.23300719994586,None,3,1,0.6301420999225229,413.23300719994586,None,,001,2021_Feb_19_1733,GuessTheSound,2020.2.10,60.056453062267565,
Test/Foils/Airhorn.wav,1,1,OLD,,,,,0,79,79,79,,,,,,,,,,,,,,,,,,,,,,,,,,,,,,,,,,,,,,,,,,,,,,,,,,,,,,,,,,,,,,,,,,,,,,,,,,,,,,413.88477869995404,None,415.39898800993103,None,415.40863239998,None,415.40863239998,None,417.9666048999643,None,1,1,0.395118199987337,417.9666048999643,None,,001,2021_Feb_19_1733,GuessTheSound,2020.2.10,60.056453062267565,
Initial/Doubled/Cuckoo_A.wav,2,3,NEW,,,,,0,80,80,80,,,,,,,,,,,,,,,,,,,,,,,,,,,,,,,,,,,,,,,,,,,,,,,,,,,,,,,,,,,,,,,,,,,,,,,,,,,,,,418.3829485999886,None,419.8990140199428,None,419.903274100041,None,419.903274100041,None,422.3829985000193,None,3,1,0.31955619994550943,422.3829985000193,None,,001,2021_Feb_19_1733,GuessTheSound,2020.2.10,60.056453062267565,
Initial/NoRepeat/Cow.wav,1,1,OLD,,,,,0,81,81,81,,,,,,,,,,,,,,,,,,,,,,,,,,,,,,,,,,,,,,,,,,,,,,,,,,,,,,,,,,,,,,,,,,,,,,,,,,,,,,422.73498259996995,None,424.24808401000917,None,424.24824620003346,None,424.24824620003346,None,426.08271650003735,None,1,1,0.5256267000222579,426.08271650003735,None,,001,2021_Feb_19_1733,GuessTheSound,2020.2.10,60.056453062267565,
Initial/NoRepeat/Hammer_A.wav,2,3,NEW,,,,,0,82,82,82,,,,,,,,,,,,,,,,,,,,,,,,,,,,,,,,,,,,,,,,,,,,,,,,,,,,,,,,,,,,,,,,,,,,,,,,,,,,,,426.6321905000368,None,428.13167871002804,None,428.1377624999732,None,428.1377624999732,None,430.6160948999459,None,3,1,0.41874140000436455,430.6160948999459,None,,001,2021_Feb_19_1733,GuessTheSound,2020.2.10,60.056453062267565,
Initial/NoRepeat/Footsteps_B.wav,2,3,NEW,,,,,0,83,83,83,,,,,,,,,,,,,,,,,,,,,,,,,,,,,,,,,,,,,,,,,,,,,,,,,,,,,,,,,,,,,,,,,,,,,,,,,,,,,,431.0646062999731,None,432.56471070999976,None,432.56610880000517,None,432.56610880000517,None,435.21589949994814,None,3,1,0.2414902999298647,435.21589949994814,None,,001,2021_Feb_19_1733,GuessTheSound,2020.2.10,60.056453062267565,
Initial/Doubled/Dog_A.wav,2,3,NEW,,,,,0,84,84,84,,,,,,,,,,,,,,,,,,,,,,,,,,,,,,,,,,,,,,,,,,,,,,,,,,,,,,,,,,,,,,,,,,,,,,,,,,,,,,435.48211830004584,None,436.9817114100209,None,436.9816216999898,None,436.9816216999898,None,439.5989344000118,None,3,1,0.3879320000996813,439.5989344000118,None,,001,2021_Feb_19_1733,GuessTheSound,2020.2.10,60.056453062267565,
Test/Foils/Bowlingpins.wav,1,1,OLD,,,,,0,85,85,85,,,,,,,,,,,,,,,,,,,,,,,,,,,,,,,,,,,,,,,,,,,,,,,,,,,,,,,,,,,,,,,,,,,,,,,,,,,,,,440.01470900001004,None,441.5146977099706,None,441.5148697999539,None,441.5148697999539,None,443.9486825999338,None,1,1,1.5852946999948472,443.9486825999338,None,,001,2021_Feb_19_1733,GuessTheSound,2020.2.10,60.056453062267565,
Initial/Doubled/Clap_A.wav,2,3,NEW,,,,,0,86,86,86,,,,,,,,,,,,,,,,,,,,,,,,,,,,,,,,,,,,,,,,,,,,,,,,,,,,,,,,,,,,,,,,,,,,,,,,,,,,,,445.5648952999618,None,447.06470220993504,None,447.06475310004316,None,447.06475310004316,None,449.56570749997627,None,3,1,0.40339490002952516,449.56570749997627,None,,001,2021_Feb_19_1733,GuessTheSound,2020.2.10,60.056453062267565,
Initial/NoRepeat/Fireworks.wav,2,3,NEW,,,,,0,87,87,87,,,,,,,,,,,,,,,,,,,,,,,,,,,,,,,,,,,,,,,,,,,,,,,,,,,,,,,,,,,,,,,,,,,,,,,,,,,,,,449.9979609999573,None,451.51458741999227,None,451.5088913999498,None,451.5088913999498,None,454.48189369996544,None,1,0,0.4374322999501601,454.48189369996544,None,,001,2021_Feb_19_1733,GuessTheSound,2020.2.10,60.056453062267565,
Test/Foils/Bullfrog.wav,1,1,OLD,,,,,0,88,88,88,,,,,,,,,,,,,,,,,,,,,,,,,,,,,,,,,,,,,,,,,,,,,,,,,,,,,,,,,,,,,,,,,,,,,,,,,,,,,,454.94795469997916,None,456.44791990999363,None,456.44784739997704,None,456.44784739997704,None,459.3659131999593,None,1,1,0.5700322999618948,459.3659131999593,None,,001,2021_Feb_19_1733,GuessTheSound,2020.2.10,60.056453062267565,
Siren_C.wav,2,2,SIMILAR,,,,,0,89,89,89,,,,,,,,,,,,,,,,,,,,,,,,,,,,,,,,,,,,,,,,,,,,,,,,,,,,,,,,,,,,,,,,,,,,,,,,,,,,,,459.96474870003294,None,461.54834475994573,None,461.54331139998976,None,461.54331139998976,None,464.015497699962,None,2,1,0.6547744999406859,464.015497699962,None,,001,2021_Feb_19_1733,GuessTheSound,2020.2.10,60.056453062267565,
Crow_A.wav,2,2,SIMILAR,,,,,0,90,90,90,,,,,,,,,,,,,,,,,,,,,,,,,,,,,,,,,,,,,,,,,,,,,,,,,,,,,,,,,,,,,,,,,,,,,,,,,,,,,,464.6980117999483,None,466.19781320999607,None,466.1999021000229,None,466.1999021000229,None,467.8984666999895,None,2,1,0.6753919000038877,467.8984666999895,None,,001,2021_Feb_19_1733,GuessTheSound,2020.2.10,60.056453062267565,
,,,,,,,,,,,,,,,,,,,,,,,,,,,,,,,,,,,,,,,,,,,,,,,,,,,,,,,,,,,,,,,,,,,,,,,,,,,,,,,,,,,,,,,,,468.5976637999993,None,,,,,,,,,,,,,,,,,,,,
