WelcomeContinueKey2.keys,WelcomeContinueKey2.rt,VolumeContinueKey.keys,VolumeContinueKey.rt,ResponseBox.text,trials.thisRepN,trials.thisTrialN,trials.thisN,trials.thisIndex,trials.ran,SoundFiles,Type,participant,session,date,expName,psychopyVersion,OS,frameRate
space,6.5421,space,3.687745,a sleighbell,0,0,0,44,1,Initial/Repeat/Cicade.wav,Repeat,Juan 5eb1994b2c1e632a7f63ff52,001,2021-01-04_02h08.22.205,GuessTheSound,2020.2.10,Win32,60
,,,,a little bird,0,1,1,62,1,Test/Foils/Bird.wav,New,Juan 5eb1994b2c1e632a7f63ff52,001,2021-01-04_02h08.22.205,GuessTheSound,2020.2.10,Win32,60
,,,,An old telephone ringing,0,2,2,52,1,Initial/Repeat/Phone_A.wav,Repeat,Juan 5eb1994b2c1e632a7f63ff52,001,2021-01-04_02h08.22.205,GuessTheSound,2020.2.10,Win32,60
,,,,A wolf in the woods,0,3,3,76,1,Test/Foils/Steam.wav,New,Juan 5eb1994b2c1e632a7f63ff52,001,2021-01-04_02h08.22.205,GuessTheSound,2020.2.10,Win32,60
,,,,Someone going down stairs,0,4,4,69,1,Test/Foils/Gallop.wav,New,Juan 5eb1994b2c1e632a7f63ff52,001,2021-01-04_02h08.22.205,GuessTheSound,2020.2.10,Win32,60
,,,,a christmas bells,0,5,5,37,1,Initial/NoRepeat/Sleighbells_B.wav,NoRepeat,Juan 5eb1994b2c1e632a7f63ff52,001,2021-01-04_02h08.22.205,GuessTheSound,2020.2.10,Win32,60
,,,,a pen writing,0,6,6,99,1,Initial/Doubled/Writing_A.wav,Extra,Juan 5eb1994b2c1e632a7f63ff52,001,2021-01-04_02h08.22.205,GuessTheSound,2020.2.10,Win32,60
,,,,a door opening,0,7,7,86,1,Initial/Doubled/Creak.wav,Extra,Juan 5eb1994b2c1e632a7f63ff52,001,2021-01-04_02h08.22.205,GuessTheSound,2020.2.10,Win32,60
,,,,rocks falling,0,8,8,63,1,Test/Foils/Bowlingpins.wav,New,Juan 5eb1994b2c1e632a7f63ff52,001,2021-01-04_02h08.22.205,GuessTheSound,2020.2.10,Win32,60
,,,,a knife,0,9,9,35,1,Initial/NoRepeat/Saw_A.wav,NoRepeat,Juan 5eb1994b2c1e632a7f63ff52,001,2021-01-04_02h08.22.205,GuessTheSound,2020.2.10,Win32,60
,,,,coins,0,10,10,4,1,Initial/Doubled/Coin_A.wav,Doubled,Juan 5eb1994b2c1e632a7f63ff52,001,2021-01-04_02h08.22.205,GuessTheSound,2020.2.10,Win32,60
,,,,a dog barking,0,11,11,16,1,Initial/Doubled/Owl_A.wav,Doubled,Juan 5eb1994b2c1e632a7f63ff52,001,2021-01-04_02h08.22.205,GuessTheSound,2020.2.10,Win32,60
,,,,a building collapsing,0,12,12,39,1,Initial/NoRepeat/Thunder_A.wav,NoRepeat,Juan 5eb1994b2c1e632a7f63ff52,001,2021-01-04_02h08.22.205,GuessTheSound,2020.2.10,Win32,60
,,,,bubbles,0,13,13,0,1,Initial/Doubled/Bubbles_A.wav,Doubled,Juan 5eb1994b2c1e632a7f63ff52,001,2021-01-04_02h08.22.205,GuessTheSound,2020.2.10,Win32,60
,,,,,0,14,14,5,1,Initial/Doubled/Cricket_A.wav,Doubled,Juan 5eb1994b2c1e632a7f63ff52,001,2021-01-04_02h08.22.205,GuessTheSound,2020.2.10,Win32,60
,,,,a couple of pencils,0,15,15,57,1,Initial/Repeat/Stir.wav,Repeat,Juan 5eb1994b2c1e632a7f63ff52,001,2021-01-04_02h08.22.205,GuessTheSound,2020.2.10,Win32,60
,,,,someone drinking,0,16,16,97,1,Test/Foils/Slurp.wav,Extra,Juan 5eb1994b2c1e632a7f63ff52,001,2021-01-04_02h08.22.205,GuessTheSound,2020.2.10,Win32,60
,,,,scottish music,0,17,17,42,1,Initial/Repeat/Bagpipe.wav,Repeat,Juan 5eb1994b2c1e632a7f63ff52,001,2021-01-04_02h08.22.205,GuessTheSound,2020.2.10,Win32,60
,,,,,0,18,18,84,1,Initial/Doubled/Clock_A.wav,Extra,Juan 5eb1994b2c1e632a7f63ff52,001,2021-01-04_02h08.22.205,GuessTheSound,2020.2.10,Win32,60
,,,,a big bell,0,19,19,2,1,Initial/Doubled/Chime_A.wav,Doubled,Juan 5eb1994b2c1e632a7f63ff52,001,2021-01-04_02h08.22.205,GuessTheSound,2020.2.10,Win32,60
,,,,people clapping ,0,20,20,3,1,Initial/Doubled/Clap_A.wav,Doubled,Juan 5eb1994b2c1e632a7f63ff52,001,2021-01-04_02h08.22.205,GuessTheSound,2020.2.10,Win32,60
,,,,a hearth-beat,0,21,21,71,1,Test/Foils/Heartbeat.wav,New,Juan 5eb1994b2c1e632a7f63ff52,001,2021-01-04_02h08.22.205,GuessTheSound,2020.2.10,Win32,60
,,,,a chainsaw,0,22,22,21,1,Initial/NoRepeat/Chainsaw_A.wav,NoRepeat,Juan 5eb1994b2c1e632a7f63ff52,001,2021-01-04_02h08.22.205,GuessTheSound,2020.2.10,Win32,60
,,,,cymbals,0,23,23,45,1,Initial/Repeat/Cymbal_A.wav,Repeat,Juan 5eb1994b2c1e632a7f63ff52,001,2021-01-04_02h08.22.205,GuessTheSound,2020.2.10,Win32,60
,,,,water falling,0,24,24,27,1,Initial/NoRepeat/Faucet_A.wav,NoRepeat,Juan 5eb1994b2c1e632a7f63ff52,001,2021-01-04_02h08.22.205,GuessTheSound,2020.2.10,Win32,60
,,,,a cow,0,25,25,22,1,Initial/NoRepeat/Cow.wav,NoRepeat,Juan 5eb1994b2c1e632a7f63ff52,001,2021-01-04_02h08.22.205,GuessTheSound,2020.2.10,Win32,60
,,,,a crow,0,26,26,87,1,Initial/Repeat/Crow_B.wav,Extra,Juan 5eb1994b2c1e632a7f63ff52,001,2021-01-04_02h08.22.205,GuessTheSound,2020.2.10,Win32,60
,,,,someone whistling,0,27,27,50,1,Initial/Repeat/ManWhistle.wav,Repeat,Juan 5eb1994b2c1e632a7f63ff52,001,2021-01-04_02h08.22.205,GuessTheSound,2020.2.10,Win32,60
,,,,some animal,0,28,28,72,1,Test/Foils/Horse.wav,New,Juan 5eb1994b2c1e632a7f63ff52,001,2021-01-04_02h08.22.205,GuessTheSound,2020.2.10,Win32,60
,,,,someone eating chips,0,29,29,83,1,Initial/Doubled/Chomp_A.wav,Extra,Juan 5eb1994b2c1e632a7f63ff52,001,2021-01-04_02h08.22.205,GuessTheSound,2020.2.10,Win32,60
,,,,a trumpet,0,30,30,36,1,Initial/NoRepeat/Sax_A.wav,NoRepeat,Juan 5eb1994b2c1e632a7f63ff52,001,2021-01-04_02h08.22.205,GuessTheSound,2020.2.10,Win32,60
,,,,someone coughing ,0,31,31,85,1,Initial/Doubled/Cough_A.wav,Extra,Juan 5eb1994b2c1e632a7f63ff52,001,2021-01-04_02h08.22.205,GuessTheSound,2020.2.10,Win32,60
,,,,something being hit,0,32,32,31,1,Initial/NoRepeat/Hammer_A.wav,NoRepeat,Juan 5eb1994b2c1e632a7f63ff52,001,2021-01-04_02h08.22.205,GuessTheSound,2020.2.10,Win32,60
,,,,,0,33,33,74,1,Test/Foils/PartyHorn.wav,New,Juan 5eb1994b2c1e632a7f63ff52,001,2021-01-04_02h08.22.205,GuessTheSound,2020.2.10,Win32,60
,,,, a chicken,0,34,34,96,1,Initial/NoRepeat/Rooster_B.wav,Extra,Juan 5eb1994b2c1e632a7f63ff52,001,2021-01-04_02h08.22.205,GuessTheSound,2020.2.10,Win32,60
,,,,some liquid,0,35,35,92,1,Test/Foils/Gulp.wav,Extra,Juan 5eb1994b2c1e632a7f63ff52,001,2021-01-04_02h08.22.205,GuessTheSound,2020.2.10,Win32,60
,,,,something crashing with metal,0,36,36,51,1,Initial/Repeat/MetalBang.wav,Repeat,Juan 5eb1994b2c1e632a7f63ff52,001,2021-01-04_02h08.22.205,GuessTheSound,2020.2.10,Win32,60
,,,,someone sneezing,0,37,37,56,1,Initial/Repeat/Sneeze_B.wav,Repeat,Juan 5eb1994b2c1e632a7f63ff52,001,2021-01-04_02h08.22.205,GuessTheSound,2020.2.10,Win32,60
,,,,some animal crying,0,38,38,68,1,Test/Foils/Donkey.wav,New,Juan 5eb1994b2c1e632a7f63ff52,001,2021-01-04_02h08.22.205,GuessTheSound,2020.2.10,Win32,60
,,,,wind,0,39,39,79,1,Test/Foils/Wind_B.wav,New,Juan 5eb1994b2c1e632a7f63ff52,001,2021-01-04_02h08.22.205,GuessTheSound,2020.2.10,Win32,60
,,,,liquid,0,40,40,23,1,Initial/NoRepeat/Toilet_B.wav,NoRepeat,Juan 5eb1994b2c1e632a7f63ff52,001,2021-01-04_02h08.22.205,GuessTheSound,2020.2.10,Win32,60
,,,,people laughing,0,41,41,15,1,Initial/Doubled/Laugh_A.wav,Doubled,Juan 5eb1994b2c1e632a7f63ff52,001,2021-01-04_02h08.22.205,GuessTheSound,2020.2.10,Win32,60
,,,,a little bird,0,42,42,59,1,Initial/Repeat/Whistle_A.wav,Repeat,Juan 5eb1994b2c1e632a7f63ff52,001,2021-01-04_02h08.22.205,GuessTheSound,2020.2.10,Win32,60
,,,,a car starting,0,43,43,81,1,Initial/Doubled/CarStart_A.wav,Extra,Juan 5eb1994b2c1e632a7f63ff52,001,2021-01-04_02h08.22.205,GuessTheSound,2020.2.10,Win32,60
,,,,some insect,0,44,44,89,1,Initial/NoRepeat/Duck_A.wav,Extra,Juan 5eb1994b2c1e632a7f63ff52,001,2021-01-04_02h08.22.205,GuessTheSound,2020.2.10,Win32,60
,,,,paper being destroyed,0,45,45,95,1,Test/Foils/PaperRip.wav,Extra,Juan 5eb1994b2c1e632a7f63ff52,001,2021-01-04_02h08.22.205,GuessTheSound,2020.2.10,Win32,60
,,,,a farm animal,0,46,46,90,1,Initial/Doubled/Geese_A.wav,Extra,Juan 5eb1994b2c1e632a7f63ff52,001,2021-01-04_02h08.22.205,GuessTheSound,2020.2.10,Win32,60
,,,,some sound from a computer,0,47,47,8,1,Initial/Doubled/Doorchime_A.wav,Doubled,Juan 5eb1994b2c1e632a7f63ff52,001,2021-01-04_02h08.22.205,GuessTheSound,2020.2.10,Win32,60
,,,,Fireworks,0,48,48,28,1,Initial/NoRepeat/Fireworks.wav,NoRepeat,Juan 5eb1994b2c1e632a7f63ff52,001,2021-01-04_02h08.22.205,GuessTheSound,2020.2.10,Win32,60
,,,,a weapon,0,49,49,93,1,Initial/NoRepeat/Helicopter_A.wav,Extra,Juan 5eb1994b2c1e632a7f63ff52,001,2021-01-04_02h08.22.205,GuessTheSound,2020.2.10,Win32,60
,,,,,0,50,50,78,1,Test/Foils/Cards.wav,New,Juan 5eb1994b2c1e632a7f63ff52,001,2021-01-04_02h08.22.205,GuessTheSound,2020.2.10,Win32,60
,,,,,0,51,51,32,1,Initial/NoRepeat/Mosquito_B.wav,NoRepeat,Juan 5eb1994b2c1e632a7f63ff52,001,2021-01-04_02h08.22.205,GuessTheSound,2020.2.10,Win32,60
,,,,a vacuum cleaner,0,52,52,13,1,Initial/Doubled/HairDryer_A.wav,Doubled,Juan 5eb1994b2c1e632a7f63ff52,001,2021-01-04_02h08.22.205,GuessTheSound,2020.2.10,Win32,60
,,,,a farm animal,0,53,53,30,1,Initial/NoRepeat/Goat_B.wav,NoRepeat,Juan 5eb1994b2c1e632a7f63ff52,001,2021-01-04_02h08.22.205,GuessTheSound,2020.2.10,Win32,60
,,,,"an old clock, with a bird",0,54,54,6,1,Initial/Doubled/Cuckoo_A.wav,Doubled,Juan 5eb1994b2c1e632a7f63ff52,001,2021-01-04_02h08.22.205,GuessTheSound,2020.2.10,Win32,60
,,,,an helicopter,0,55,55,40,1,Initial/Repeat/Airplane_B.wav,Repeat,Juan 5eb1994b2c1e632a7f63ff52,001,2021-01-04_02h08.22.205,GuessTheSound,2020.2.10,Win32,60
,,,,a guitar,0,56,56,91,1,Initial/Doubled/Guitar_A.wav,Extra,Juan 5eb1994b2c1e632a7f63ff52,001,2021-01-04_02h08.22.205,GuessTheSound,2020.2.10,Win32,60
,,,, a lion,0,57,57,12,1,Initial/Doubled/Growl_A.wav,Doubled,Juan 5eb1994b2c1e632a7f63ff52,001,2021-01-04_02h08.22.205,GuessTheSound,2020.2.10,Win32,60
,,,,latin music,0,58,58,46,1,Initial/Repeat/Drum_B.wav,Repeat,Juan 5eb1994b2c1e632a7f63ff52,001,2021-01-04_02h08.22.205,GuessTheSound,2020.2.10,Win32,60
,,,,the sea,0,59,59,18,1,Initial/Doubled/Surf_A.wav,Doubled,Juan 5eb1994b2c1e632a7f63ff52,001,2021-01-04_02h08.22.205,GuessTheSound,2020.2.10,Win32,60
