VolumeContinueKey.keys,VolumeContinueKey.rt,ContinueResp.keys,ContinueResp.rt,WelcomeContinueKey2.keys,WelcomeContinueKey2.rt,Practice_resp.keys,Practice_resp.corr,Practice_resp.rt,PracticeTrials.thisRepN,PracticeTrials.thisTrialN,PracticeTrials.thisN,PracticeTrials.thisIndex,PracticeTrials.ran,SoundFiles3,Correct,participant,session,date,expName,psychopyVersion,OS,frameRate,StartTast.keys,StartTast.rt,MSTResp.keys,MSTResp.corr,MSTResp.rt,trials.thisRepN,trials.thisTrialN,trials.thisN,trials.thisIndex,trials.ran,ExitKey.keys,ExitKey.rt
space,5.13742,space,20.641335,space,3.338675,3,1,8.99853,0,0,0,0,1,Practice/Seagull_A.wav,3,,001,2021-01-17_13h51.08.382,GuessTheSound,2020.2.10,Win32,60,,,,,,,,,,,,
,,,,,,3,1,2.50593,0,1,1,1,1,Practice/Skid_B.wav,3,,001,2021-01-17_13h51.08.382,GuessTheSound,2020.2.10,Win32,60,,,,,,,,,,,,
,,,,,,1,1,4.01183,0,2,2,2,1,Practice/Seagull_A.wav,1,,001,2021-01-17_13h51.08.382,GuessTheSound,2020.2.10,Win32,60,,,,,,,,,,,,
,,,,,,3,1,2.067365,0,3,3,3,1,Practice/Gargle_A.wav,3,,001,2021-01-17_13h51.08.382,GuessTheSound,2020.2.10,Win32,60,,,,,,,,,,,,
,,,,,,2,1,1.99735,0,4,4,4,1,Practice/Gargle_B.wav,2,,001,2021-01-17_13h51.08.382,GuessTheSound,2020.2.10,Win32,60,,,,,,,,,,,,
,,,,,,,,,,,,,,Initial/Doubled/Coin_A.wav,3,,001,2021-01-17_13h51.08.382,GuessTheSound,2020.2.10,Win32,60,space,5.4467,3,1,1.739835,0,0,0,0,1,,
,,,,,,,,,,,,,,Initial/Repeat/ManWhistle.wav,3,,001,2021-01-17_13h51.08.382,GuessTheSound,2020.2.10,Win32,60,,,3,1,1.034375,0,1,1,1,1,,
,,,,,,,,,,,,,,Initial/Doubled/Cuckoo_A.wav,3,,001,2021-01-17_13h51.08.382,GuessTheSound,2020.2.10,Win32,60,,,3,1,0.562555,0,2,2,2,1,,
,,,,,,,,,,,,,,Initial/Doubled/Piano_A.wav,3,,001,2021-01-17_13h51.08.382,GuessTheSound,2020.2.10,Win32,60,,,3,1,0.767175,0,3,3,3,1,,
,,,,,,,,,,,,,,Initial/Doubled/Siren_A.wav,3,,001,2021-01-17_13h51.08.382,GuessTheSound,2020.2.10,Win32,60,,,3,1,0.883785,0,4,4,4,1,,
,,,,,,,,,,,,,,Test/Foils/Bird.wav,3,,001,2021-01-17_13h51.08.382,GuessTheSound,2020.2.10,Win32,60,,,3,1,0.985125,0,5,5,5,1,,
,,,,,,,,,,,,,,Initial/Doubled/Cat_A.wav,3,,001,2021-01-17_13h51.08.382,GuessTheSound,2020.2.10,Win32,60,,,3,1,0.46742,0,6,6,6,1,,
,,,,,,,,,,,,,,Initial/NoRepeat/Baby_B.wav,3,,001,2021-01-17_13h51.08.382,GuessTheSound,2020.2.10,Win32,60,,,3,1,0.57592,0,7,7,7,1,,
,,,,,,,,,,,,,,Initial/Doubled/Writing_A.wav,3,,001,2021-01-17_13h51.08.382,GuessTheSound,2020.2.10,Win32,60,,,3,1,0.944555,0,8,8,8,1,,
,,,,,,,,,,,,,,Piano_D.wav,2,,001,2021-01-17_13h51.08.382,GuessTheSound,2020.2.10,Win32,60,,,2,1,2.682145,0,9,9,9,1,,
,,,,,,,,,,,,,,Initial/Repeat/Phone_A.wav,3,,001,2021-01-17_13h51.08.382,GuessTheSound,2020.2.10,Win32,60,,,3,1,1.33391,0,10,10,10,1,,
,,,,,,,,,,,,,,Test/Foils/Typing.wav,3,,001,2021-01-17_13h51.08.382,GuessTheSound,2020.2.10,Win32,60,,,3,1,3.100335,0,11,11,11,1,,
,,,,,,,,,,,,,,Initial/Repeat/Pour.wav,3,,001,2021-01-17_13h51.08.382,GuessTheSound,2020.2.10,Win32,60,,,3,1,0.992475,0,12,12,12,1,,
,,,,,,,,,,,,,,Initial/Doubled/HairDryer_A.wav,3,,001,2021-01-17_13h51.08.382,GuessTheSound,2020.2.10,Win32,60,,,3,1,0.802,0,13,13,13,1,,
,,,,,,,,,,,,,,Initial/Doubled/Cuckoo_A.wav,1,,001,2021-01-17_13h51.08.382,GuessTheSound,2020.2.10,Win32,60,,,1,1,1.97626,0,14,14,14,1,,
,,,,,,,,,,,,,,Initial/Doubled/Chime_A.wav,3,,001,2021-01-17_13h51.08.382,GuessTheSound,2020.2.10,Win32,60,,,3,1,1.017745,0,15,15,15,1,,
,,,,,,,,,,,,,,Initial/NoRepeat/Fireworks.wav,3,,001,2021-01-17_13h51.08.382,GuessTheSound,2020.2.10,Win32,60,,,3,1,0.942285,0,16,16,16,1,,
,,,,,,,,,,,,,,Baby_A.wav,2,,001,2021-01-17_13h51.08.382,GuessTheSound,2020.2.10,Win32,60,,,2,1,0.922105,0,17,17,17,1,,
,,,,,,,,,,,,,,Test/Foils/DialTone.wav,3,,001,2021-01-17_13h51.08.382,GuessTheSound,2020.2.10,Win32,60,,,3,1,1.112225,0,18,18,18,1,,
,,,,,,,,,,,,,,Siren_B.wav,2,,001,2021-01-17_13h51.08.382,GuessTheSound,2020.2.10,Win32,60,,,2,1,0.859385,0,19,19,19,1,,
,,,,,,,,,,,,,,Test/Foils/PaperRip.wav,3,,001,2021-01-17_13h51.08.382,GuessTheSound,2020.2.10,Win32,60,,,3,1,0.828585,0,20,20,20,1,,
,,,,,,,,,,,,,,Bird_C.wav,2,,001,2021-01-17_13h51.08.382,GuessTheSound,2020.2.10,Win32,60,,,2,1,1.32734,0,21,21,21,1,,
,,,,,,,,,,,,,,Pour_D.wav,2,,001,2021-01-17_13h51.08.382,GuessTheSound,2020.2.10,Win32,60,,,2,1,1.39454,0,22,22,22,1,,
,,,,,,,,,,,,,,Test/Foils/Camera.wav,3,,001,2021-01-17_13h51.08.382,GuessTheSound,2020.2.10,Win32,60,,,3,1,1.187545,0,23,23,23,1,,
,,,,,,,,,,,,,,Initial/Doubled/Writing_A.wav,1,,001,2021-01-17_13h51.08.382,GuessTheSound,2020.2.10,Win32,60,,,1,1,1.35903,0,24,24,24,1,,
,,,,,,,,,,,,,,Test/Foils/Typing.wav,1,,001,2021-01-17_13h51.08.382,GuessTheSound,2020.2.10,Win32,60,,,1,1,1.45269,0,25,25,25,1,,
,,,,,,,,,,,,,,Initial/NoRepeat/Snore_B.wav,3,,001,2021-01-17_13h51.08.382,GuessTheSound,2020.2.10,Win32,60,,,3,1,1.022235,0,26,26,26,1,,
,,,,,,,,,,,,,,Baby_C.wav,2,,001,2021-01-17_13h51.08.382,GuessTheSound,2020.2.10,Win32,60,,,2,1,0.89547,0,27,27,27,1,,
,,,,,,,,,,,,,,Siren_C.wav,2,,001,2021-01-17_13h51.08.382,GuessTheSound,2020.2.10,Win32,60,,,2,1,1.24368,0,28,28,28,1,,
,,,,,,,,,,,,,,Initial/Doubled/Chime_A.wav,1,,001,2021-01-17_13h51.08.382,GuessTheSound,2020.2.10,Win32,60,,,1,1,1.434795,0,29,29,29,1,,
,,,,,,,,,,,,,,Piano_C.wav,2,,001,2021-01-17_13h51.08.382,GuessTheSound,2020.2.10,Win32,60,,,2,1,1.254485,0,30,30,30,1,,
,,,,,,,,,,,,,,Initial/NoRepeat/Fireworks.wav,1,,001,2021-01-17_13h51.08.382,GuessTheSound,2020.2.10,Win32,60,,,1,1,0.934905,0,31,31,31,1,,
,,,,,,,,,,,,,,Pour_C.wav,2,,001,2021-01-17_13h51.08.382,GuessTheSound,2020.2.10,Win32,60,,,2,1,1.04559,0,32,32,32,1,,
,,,,,,,,,,,,,,Bird_D.wav,2,,001,2021-01-17_13h51.08.382,GuessTheSound,2020.2.10,Win32,60,,,2,1,1.034595,0,33,33,33,1,,
,,,,,,,,,,,,,,Initial/Repeat/Airplane_B.wav,3,,001,2021-01-17_13h51.08.382,GuessTheSound,2020.2.10,Win32,60,,,3,1,0.85102,0,34,34,34,1,,
,,,,,,,,,,,,,,Test/Foils/Buzz.wav,3,,001,2021-01-17_13h51.08.382,GuessTheSound,2020.2.10,Win32,60,,,3,1,0.585225,0,35,35,35,1,,
,,,,,,,,,,,,,,Initial/Doubled/Growl_A.wav,3,,001,2021-01-17_13h51.08.382,GuessTheSound,2020.2.10,Win32,60,,,3,1,0.85627,0,36,36,36,1,,
,,,,,,,,,,,,,,Initial/Doubled/Cuckoo_A.wav,1,,001,2021-01-17_13h51.08.382,GuessTheSound,2020.2.10,Win32,60,,,1,1,0.8772,0,37,37,37,1,,
,,,,,,,,,,,,,,Initial/Doubled/Chicken_A.wav,3,,001,2021-01-17_13h51.08.382,GuessTheSound,2020.2.10,Win32,60,,,3,1,1.157845,0,38,38,38,1,,
,,,,,,,,,,,,,,Initial/Doubled/Laugh_A.wav,3,,001,2021-01-17_13h51.08.382,GuessTheSound,2020.2.10,Win32,60,,,3,1,0.835745,0,39,39,39,1,,
,,,,,,,,,,,,,,Test/Foils/Typing.wav,1,,001,2021-01-17_13h51.08.382,GuessTheSound,2020.2.10,Win32,60,,,1,1,1.30924,0,40,40,40,1,,
,,,,,,,,,,,,,,Initial/Doubled/Cough_A.wav,3,,001,2021-01-17_13h51.08.382,GuessTheSound,2020.2.10,Win32,60,,,3,1,0.967515,0,41,41,41,1,,
,,,,,,,,,,,,,,Initial/Doubled/Clap_A.wav,3,,001,2021-01-17_13h51.08.382,GuessTheSound,2020.2.10,Win32,60,,,3,1,1.405585,0,42,42,42,1,,
,,,,,,,,,,,,,,Initial/Doubled/Writing_A.wav,1,,001,2021-01-17_13h51.08.382,GuessTheSound,2020.2.10,Win32,60,,,1,1,0.824235,0,43,43,43,1,,
,,,,,,,,,,,,,,Initial/Doubled/Chomp_A.wav,3,,001,2021-01-17_13h51.08.382,GuessTheSound,2020.2.10,Win32,60,,,3,1,0.96982,0,44,44,44,1,,
,,,,,,,,,,,,,,Initial/Doubled/CarStart_A.wav,3,,001,2021-01-17_13h51.08.382,GuessTheSound,2020.2.10,Win32,60,,,3,1,0.704785,0,45,45,45,1,,
,,,,,,,,,,,,,,Initial/NoRepeat/Fireworks.wav,1,,001,2021-01-17_13h51.08.382,GuessTheSound,2020.2.10,Win32,60,,,1,1,0.88754,0,46,46,46,1,,
,,,,,,,,,,,,,,Initial/NoRepeat/Toilet_B.wav,3,,001,2021-01-17_13h51.08.382,GuessTheSound,2020.2.10,Win32,60,,,3,1,0.64002,0,47,47,47,1,,
,,,,,,,,,,,,,,Initial/NoRepeat/Cow.wav,3,,001,2021-01-17_13h51.08.382,GuessTheSound,2020.2.10,Win32,60,,,3,1,1.573295,0,48,48,48,1,,
,,,,,,,,,,,,,,Initial/NoRepeat/Helicopter_A.wav,3,,001,2021-01-17_13h51.08.382,GuessTheSound,2020.2.10,Win32,60,,,3,1,0.83781,0,49,49,49,1,,
,,,,,,,,,,,,,,Initial/Doubled/Dog_A.wav,3,,001,2021-01-17_13h51.08.382,GuessTheSound,2020.2.10,Win32,60,,,3,1,1.101515,0,50,50,50,1,,
,,,,,,,,,,,,,,Test/Foils/Wind_B.wav,3,,001,2021-01-17_13h51.08.382,GuessTheSound,2020.2.10,Win32,60,,,3,1,0.76009,0,51,51,51,1,,
,,,,,,,,,,,,,,Initial/Doubled/Chime_A.wav,1,,001,2021-01-17_13h51.08.382,GuessTheSound,2020.2.10,Win32,60,,,1,1,0.41764,0,52,52,52,1,,
,,,,,,,,,,,,,,Laugh_C.wav,2,,001,2021-01-17_13h51.08.382,GuessTheSound,2020.2.10,Win32,60,,,1,0,1.095965,0,53,53,53,1,,
,,,,,,,,,,,,,,Cough_D.wav,2,,001,2021-01-17_13h51.08.382,GuessTheSound,2020.2.10,Win32,60,,,2,1,2.772755,0,54,54,54,1,,
,,,,,,,,,,,,,,Test/Foils/Buzz.wav,1,,001,2021-01-17_13h51.08.382,GuessTheSound,2020.2.10,Win32,60,,,1,1,0.65729,0,55,55,55,1,,
,,,,,,,,,,,,,,Initial/Repeat/Howl.wav,3,,001,2021-01-17_13h51.08.382,GuessTheSound,2020.2.10,Win32,60,,,1,0,0.71501,0,56,56,56,1,,
,,,,,,,,,,,,,,Initial/NoRepeat/Toilet_B.wav,1,,001,2021-01-17_13h51.08.382,GuessTheSound,2020.2.10,Win32,60,,,1,1,0.66883,0,57,57,57,1,,
,,,,,,,,,,,,,,CarStart_D.wav,2,,001,2021-01-17_13h51.08.382,GuessTheSound,2020.2.10,Win32,60,,,3,0,1.56508,0,58,58,58,1,,
,,,,,,,,,,,,,,Chomp_B.wav,2,,001,2021-01-17_13h51.08.382,GuessTheSound,2020.2.10,Win32,60,,,2,1,1.70615,0,59,59,59,1,,
,,,,,,,,,,,,,,Initial/Doubled/Clap_A.wav,1,,001,2021-01-17_13h51.08.382,GuessTheSound,2020.2.10,Win32,60,,,1,1,0.97194,0,60,60,60,1,,
,,,,,,,,,,,,,,Initial/Doubled/Bubbles_A.wav,3,,001,2021-01-17_13h51.08.382,GuessTheSound,2020.2.10,Win32,60,,,3,1,0.78396,0,61,61,61,1,,
,,,,,,,,,,,,,,Dog_C.wav,2,,001,2021-01-17_13h51.08.382,GuessTheSound,2020.2.10,Win32,60,,,1,0,0.81845,0,62,62,62,1,,
,,,,,,,,,,,,,,Laugh_D.wav,2,,001,2021-01-17_13h51.08.382,GuessTheSound,2020.2.10,Win32,60,,,2,1,2.060285,0,63,63,63,1,,
,,,,,,,,,,,,,,Initial/NoRepeat/Helicopter_A.wav,1,,001,2021-01-17_13h51.08.382,GuessTheSound,2020.2.10,Win32,60,,,1,1,0.814865,0,64,64,64,1,,
,,,,,,,,,,,,,,Cough_C.wav,2,,001,2021-01-17_13h51.08.382,GuessTheSound,2020.2.10,Win32,60,,,2,1,1.395135,0,65,65,65,1,,
,,,,,,,,,,,,,,Test/Foils/Heartbeat.wav,3,,001,2021-01-17_13h51.08.382,GuessTheSound,2020.2.10,Win32,60,,,3,1,0.98928,0,66,66,66,1,,
,,,,,,,,,,,,,,Test/Foils/Wind_B.wav,1,,001,2021-01-17_13h51.08.382,GuessTheSound,2020.2.10,Win32,60,,,1,1,0.82817,0,67,67,67,1,,
,,,,,,,,,,,,,,CarStart_B.wav,2,,001,2021-01-17_13h51.08.382,GuessTheSound,2020.2.10,Win32,60,,,2,1,0.90593,0,68,68,68,1,,
,,,,,,,,,,,,,,Chomp_C.wav,2,,001,2021-01-17_13h51.08.382,GuessTheSound,2020.2.10,Win32,60,,,2,1,1.684715,0,69,69,69,1,,
,,,,,,,,,,,,,,Initial/NoRepeat/Footsteps_B.wav,3,,001,2021-01-17_13h51.08.382,GuessTheSound,2020.2.10,Win32,60,,,3,1,1.08392,0,70,70,70,1,,
,,,,,,,,,,,,,,Test/Foils/Buzz.wav,1,,001,2021-01-17_13h51.08.382,GuessTheSound,2020.2.10,Win32,60,,,1,1,0.886245,0,71,71,71,1,,
,,,,,,,,,,,,,,Initial/NoRepeat/Droplet_B.wav,3,,001,2021-01-17_13h51.08.382,GuessTheSound,2020.2.10,Win32,60,,,3,1,1.078305,0,72,72,72,1,,
,,,,,,,,,,,,,,Initial/Doubled/Guitar_A.wav,3,,001,2021-01-17_13h51.08.382,GuessTheSound,2020.2.10,Win32,60,,,3,1,0.80972,0,73,73,73,1,,
,,,,,,,,,,,,,,Initial/NoRepeat/Toilet_B.wav,1,,001,2021-01-17_13h51.08.382,GuessTheSound,2020.2.10,Win32,60,,,1,1,0.800425,0,74,74,74,1,,
,,,,,,,,,,,,,,Dog_D.wav,2,,001,2021-01-17_13h51.08.382,GuessTheSound,2020.2.10,Win32,60,,,2,1,1.45084,0,75,75,75,1,,
,,,,,,,,,,,,,,Initial/Doubled/Clap_A.wav,1,,001,2021-01-17_13h51.08.382,GuessTheSound,2020.2.10,Win32,60,,,1,1,1.051175,0,76,76,76,1,,
,,,,,,,,,,,,,,Test/Foils/Bullfrog.wav,3,,001,2021-01-17_13h51.08.382,GuessTheSound,2020.2.10,Win32,60,,,3,1,0.71687,0,77,77,77,1,,
,,,,,,,,,,,,,,Test/Foils/Wind_B.wav,1,,001,2021-01-17_13h51.08.382,GuessTheSound,2020.2.10,Win32,60,,,1,1,0.65277,0,78,78,78,1,,
,,,,,,,,,,,,,,Initial/NoRepeat/Helicopter_A.wav,1,,001,2021-01-17_13h51.08.382,GuessTheSound,2020.2.10,Win32,60,,,1,1,0.77664,0,79,79,79,1,,
,,,,,,,,,,,,,,,,,001,2021-01-17_13h51.08.382,GuessTheSound,2020.2.10,Win32,60,,,,,,,,,,,space,10.62367
