WelcomeContinueKey2.keys,WelcomeContinueKey2.rt,VolumeContinueKey.keys,VolumeContinueKey.rt,ResponseBox.text,trials.thisRepN,trials.thisTrialN,trials.thisN,trials.thisIndex,trials.ran,SoundFiles,Type,participant,session,date,expName,psychopyVersion,OS,frameRate
space,9.66359,space,11.781275,toilet,0,0,0,23,1,Initial/NoRepeat/Toilet_B.wav,NoRepeat,,001,2020-12-23_11h14.11.584,GuessTheSound,2020.2.10,Win32,60
,,,,,0,1,1,39,1,Initial/NoRepeat/Thunder_A.wav,NoRepeat,,001,2020-12-23_11h14.11.584,GuessTheSound,2020.2.10,Win32,60
,,,,,0,2,2,83,1,Initial/Doubled/Chomp_A.wav,Extra,,001,2020-12-23_11h14.11.584,GuessTheSound,2020.2.10,Win32,60
,,,,,0,3,3,87,1,Initial/Repeat/Crow_B.wav,Extra,,001,2020-12-23_11h14.11.584,GuessTheSound,2020.2.10,Win32,60
,,,,,0,4,4,1,1,Initial/Doubled/Chicken_A.wav,Doubled,,001,2020-12-23_11h14.11.584,GuessTheSound,2020.2.10,Win32,60
,,,,,0,5,5,47,1,Initial/Repeat/Cup.wav,Repeat,,001,2020-12-23_11h14.11.584,GuessTheSound,2020.2.10,Win32,60
,,,,,0,6,6,43,1,Initial/Repeat/Cello.wav,Repeat,,001,2020-12-23_11h14.11.584,GuessTheSound,2020.2.10,Win32,60
,,,,,0,7,7,41,1,Initial/Repeat/Bat.wav,Repeat,,001,2020-12-23_11h14.11.584,GuessTheSound,2020.2.10,Win32,60
,,,,,0,8,8,53,1,Initial/Repeat/Pingpong.wav,Repeat,,001,2020-12-23_11h14.11.584,GuessTheSound,2020.2.10,Win32,60
,,,,,0,9,9,62,1,Test/Foils/Bird.wav,New,,001,2020-12-23_11h14.11.584,GuessTheSound,2020.2.10,Win32,60
,,,,,0,10,10,77,1,Test/Foils/Typing.wav,New,,001,2020-12-23_11h14.11.584,GuessTheSound,2020.2.10,Win32,60
,,,,,0,11,11,65,1,Test/Foils/Bullfrog.wav,New,,001,2020-12-23_11h14.11.584,GuessTheSound,2020.2.10,Win32,60
,,,,,0,12,12,82,1,Initial/Doubled/Cat_A.wav,Extra,,001,2020-12-23_11h14.11.584,GuessTheSound,2020.2.10,Win32,60
,,,,,0,13,13,27,1,Initial/NoRepeat/Faucet_A.wav,NoRepeat,,001,2020-12-23_11h14.11.584,GuessTheSound,2020.2.10,Win32,60
,,,,,0,14,14,75,1,Test/Foils/Robot.wav,New,,001,2020-12-23_11h14.11.584,GuessTheSound,2020.2.10,Win32,60
,,,,,0,15,15,74,1,Test/Foils/PartyHorn.wav,New,,001,2020-12-23_11h14.11.584,GuessTheSound,2020.2.10,Win32,60
,,,,,0,16,16,70,1,Test/Foils/Harmonica.wav,New,,001,2020-12-23_11h14.11.584,GuessTheSound,2020.2.10,Win32,60
,,,,,0,17,17,69,1,Test/Foils/Gallop.wav,New,,001,2020-12-23_11h14.11.584,GuessTheSound,2020.2.10,Win32,60
,,,,,0,18,18,61,1,Test/Foils/Axe.wav,New,,001,2020-12-23_11h14.11.584,GuessTheSound,2020.2.10,Win32,60
,,,,,0,19,19,96,1,Initial/NoRepeat/Rooster_B.wav,Extra,,001,2020-12-23_11h14.11.584,GuessTheSound,2020.2.10,Win32,60
,,,,,0,20,20,48,1,Initial/Repeat/Howl.wav,Repeat,,001,2020-12-23_11h14.11.584,GuessTheSound,2020.2.10,Win32,60
,,,,,0,21,21,16,1,Initial/Doubled/Owl_A.wav,Doubled,,001,2020-12-23_11h14.11.584,GuessTheSound,2020.2.10,Win32,60
,,,,,0,22,22,7,1,Initial/Doubled/Dog_A.wav,Doubled,,001,2020-12-23_11h14.11.584,GuessTheSound,2020.2.10,Win32,60
,,,,,0,23,23,98,1,Initial/Doubled/Train_A.wav,Extra,,001,2020-12-23_11h14.11.584,GuessTheSound,2020.2.10,Win32,60
,,,,,0,24,24,64,1,Test/Foils/Brushing.wav,New,,001,2020-12-23_11h14.11.584,GuessTheSound,2020.2.10,Win32,60
,,,,,0,25,25,97,1,Test/Foils/Slurp.wav,Extra,,001,2020-12-23_11h14.11.584,GuessTheSound,2020.2.10,Win32,60
,,,,,0,26,26,10,1,Initial/Doubled/Gargle_A.wav,Doubled,,001,2020-12-23_11h14.11.584,GuessTheSound,2020.2.10,Win32,60
,,,,,0,27,27,52,1,Initial/Repeat/Phone_A.wav,Repeat,,001,2020-12-23_11h14.11.584,GuessTheSound,2020.2.10,Win32,60
,,,,,0,28,28,89,1,Initial/NoRepeat/Duck_A.wav,Extra,,001,2020-12-23_11h14.11.584,GuessTheSound,2020.2.10,Win32,60
,,,,,0,29,29,76,1,Test/Foils/Steam.wav,New,,001,2020-12-23_11h14.11.584,GuessTheSound,2020.2.10,Win32,60
,,,,,0,30,30,18,1,Initial/Doubled/Surf_A.wav,Doubled,,001,2020-12-23_11h14.11.584,GuessTheSound,2020.2.10,Win32,60
,,,,,0,31,31,54,1,Initial/Repeat/Printer.wav,Repeat,,001,2020-12-23_11h14.11.584,GuessTheSound,2020.2.10,Win32,60
,,,,,0,32,32,60,1,Test/Foils/Airhorn.wav,New,,001,2020-12-23_11h14.11.584,GuessTheSound,2020.2.10,Win32,60
,,,,,0,33,33,19,1,Initial/Doubled/Turkey_A.wav,Doubled,,001,2020-12-23_11h14.11.584,GuessTheSound,2020.2.10,Win32,60
,,,,,0,34,34,94,1,Initial/Repeat/IceDrop.wav,Extra,,001,2020-12-23_11h14.11.584,GuessTheSound,2020.2.10,Win32,60
,,,,,0,35,35,73,1,Test/Foils/Kettle.wav,New,,001,2020-12-23_11h14.11.584,GuessTheSound,2020.2.10,Win32,60
,,,,,0,36,36,31,1,Initial/NoRepeat/Hammer_A.wav,NoRepeat,,001,2020-12-23_11h14.11.584,GuessTheSound,2020.2.10,Win32,60
,,,,,0,37,37,42,1,Initial/Repeat/Bagpipe.wav,Repeat,,001,2020-12-23_11h14.11.584,GuessTheSound,2020.2.10,Win32,60
,,,,,0,38,38,80,1,Test/Foils/Camera.wav,Extra,,001,2020-12-23_11h14.11.584,GuessTheSound,2020.2.10,Win32,60
,,,,,0,39,39,58,1,Initial/Repeat/Trumpet_B.wav,Repeat,,001,2020-12-23_11h14.11.584,GuessTheSound,2020.2.10,Win32,60
,,,,,0,40,40,71,1,Test/Foils/Heartbeat.wav,New,,001,2020-12-23_11h14.11.584,GuessTheSound,2020.2.10,Win32,60
,,,,,0,41,41,24,1,Initial/NoRepeat/Droplet_B.wav,NoRepeat,,001,2020-12-23_11h14.11.584,GuessTheSound,2020.2.10,Win32,60
,,,,,0,42,42,13,1,Initial/Doubled/HairDryer_A.wav,Doubled,,001,2020-12-23_11h14.11.584,GuessTheSound,2020.2.10,Win32,60
,,,,,0,43,43,84,1,Initial/Doubled/Clock_A.wav,Extra,,001,2020-12-23_11h14.11.584,GuessTheSound,2020.2.10,Win32,60
,,,,,0,44,44,30,1,Initial/NoRepeat/Goat_B.wav,NoRepeat,,001,2020-12-23_11h14.11.584,GuessTheSound,2020.2.10,Win32,60
,,,,,0,45,45,44,1,Initial/Repeat/Cicade.wav,Repeat,,001,2020-12-23_11h14.11.584,GuessTheSound,2020.2.10,Win32,60
,,,,,0,46,46,67,1,Test/Foils/Curtain.wav,New,,001,2020-12-23_11h14.11.584,GuessTheSound,2020.2.10,Win32,60
,,,,,0,47,47,81,1,Initial/Doubled/CarStart_A.wav,Extra,,001,2020-12-23_11h14.11.584,GuessTheSound,2020.2.10,Win32,60
,,,,,0,48,48,5,1,Initial/Doubled/Cricket_A.wav,Doubled,,001,2020-12-23_11h14.11.584,GuessTheSound,2020.2.10,Win32,60
,,,,,0,49,49,34,1,Initial/NoRepeat/Puff_A.wav,NoRepeat,,001,2020-12-23_11h14.11.584,GuessTheSound,2020.2.10,Win32,60
,,,,,0,50,50,63,1,Test/Foils/Bowlingpins.wav,New,,001,2020-12-23_11h14.11.584,GuessTheSound,2020.2.10,Win32,60
,,,,,0,51,51,36,1,Initial/NoRepeat/Sax_A.wav,NoRepeat,,001,2020-12-23_11h14.11.584,GuessTheSound,2020.2.10,Win32,60
,,,,,0,52,52,9,1,Initial/Doubled/Piano_A.wav,Doubled,,001,2020-12-23_11h14.11.584,GuessTheSound,2020.2.10,Win32,60
,,,,,0,53,53,95,1,Test/Foils/PaperRip.wav,Extra,,001,2020-12-23_11h14.11.584,GuessTheSound,2020.2.10,Win32,60
,,,,,0,54,54,8,1,Initial/Doubled/Doorchime_A.wav,Doubled,,001,2020-12-23_11h14.11.584,GuessTheSound,2020.2.10,Win32,60
,,,,,0,55,55,66,1,Test/Foils/Buzz.wav,New,,001,2020-12-23_11h14.11.584,GuessTheSound,2020.2.10,Win32,60
,,,,,0,56,56,50,1,Initial/Repeat/ManWhistle.wav,Repeat,,001,2020-12-23_11h14.11.584,GuessTheSound,2020.2.10,Win32,60
,,,,,0,57,57,32,1,Initial/NoRepeat/Mosquito_B.wav,NoRepeat,,001,2020-12-23_11h14.11.584,GuessTheSound,2020.2.10,Win32,60
,,,,,0,58,58,38,1,Initial/NoRepeat/Snore_B.wav,NoRepeat,,001,2020-12-23_11h14.11.584,GuessTheSound,2020.2.10,Win32,60
,,,,,0,59,59,17,1,Initial/Doubled/Windchime_A.wav,Doubled,,001,2020-12-23_11h14.11.584,GuessTheSound,2020.2.10,Win32,60
