ContinueResp.keys,ContinueResp.rt,WelcomeContinueKey2.keys,WelcomeContinueKey2.rt,VolumeContinueKey.keys,VolumeContinueKey.rt,ResponseBox.text,MSTResp.keys,MSTResp.corr,MSTResp.rt,trials.thisRepN,trials.thisTrialN,trials.thisN,trials.thisIndex,trials.ran,SoundFiles3,Correct,participant,session,date,expName,psychopyVersion,OS,frameRate
space,1.50289,space,1.69021,space,1.190495,,3,1,4.293395,0,0,0,0,1,Test/Foils/Slurp.wav,3,,001,2021-01-07_16h03.56.324,GuessTheSound,2020.2.10,Win32,60
,,,,,,,3,1,0.931395,0,1,1,1,1,Initial/Repeat/ManWhistle.wav,3,,001,2021-01-07_16h03.56.324,GuessTheSound,2020.2.10,Win32,60
,,,,,,,3,1,1.54139,0,2,2,2,1,Test/Foils/Airhorn.wav,3,,001,2021-01-07_16h03.56.324,GuessTheSound,2020.2.10,Win32,60
,,,,,,,3,1,1.421065,0,3,3,3,1,Initial/Doubled/Piano_A.wav,3,,001,2021-01-07_16h03.56.324,GuessTheSound,2020.2.10,Win32,60
,,,,,,,3,1,1.407555,0,4,4,4,1,Initial/Doubled/Siren_A.wav,3,,001,2021-01-07_16h03.56.324,GuessTheSound,2020.2.10,Win32,60
,,,,,,,3,1,2.168955,0,5,5,5,1,Test/Foils/Bird.wav,3,,001,2021-01-07_16h03.56.324,GuessTheSound,2020.2.10,Win32,60
,,,,,,,3,1,0.865205,0,6,6,6,1,Initial/Doubled/Cat_A.wav,3,,001,2021-01-07_16h03.56.324,GuessTheSound,2020.2.10,Win32,60
,,,,,,,3,1,1.767085,0,7,7,7,1,Initial/NoRepeat/Baby_B.wav,3,,001,2021-01-07_16h03.56.324,GuessTheSound,2020.2.10,Win32,60
,,,,,,,3,1,1.01851,0,8,8,8,1,Initial/Doubled/Writing_A.wav,3,,001,2021-01-07_16h03.56.324,GuessTheSound,2020.2.10,Win32,60
,,,,,,,2,1,0.58076,0,9,9,9,1,Piano_D.wav,2,,001,2021-01-07_16h03.56.324,GuessTheSound,2020.2.10,Win32,60
,,,,,,,3,1,0.849405,0,10,10,10,1,Initial/NoRepeat/Mosquito_B.wav,3,,001,2021-01-07_16h03.56.324,GuessTheSound,2020.2.10,Win32,60
,,,,,,,3,1,1.198455,0,11,11,11,1,Test/Foils/Typing.wav,3,,001,2021-01-07_16h03.56.324,GuessTheSound,2020.2.10,Win32,60
,,,,,,,3,1,3.936365,0,12,12,12,1,Initial/Repeat/Pour.wav,3,,001,2021-01-07_16h03.56.324,GuessTheSound,2020.2.10,Win32,60
,,,,,,,3,1,1.609225,0,13,13,13,1,Initial/Doubled/HairDryer_A.wav,3,,001,2021-01-07_16h03.56.324,GuessTheSound,2020.2.10,Win32,60
,,,,,,,1,1,0.801745,0,14,14,14,1,Test/Foils/Airhorn.wav,1,,001,2021-01-07_16h03.56.324,GuessTheSound,2020.2.10,Win32,60
,,,,,,,3,1,1.85314,0,15,15,15,1,Initial/Doubled/Chime_A.wav,3,,001,2021-01-07_16h03.56.324,GuessTheSound,2020.2.10,Win32,60
,,,,,,,3,1,0.917775,0,16,16,16,1,Initial/NoRepeat/Fireworks.wav,3,,001,2021-01-07_16h03.56.324,GuessTheSound,2020.2.10,Win32,60
,,,,,,,3,0,0.9408,0,17,17,17,1,Baby_A.wav,2,,001,2021-01-07_16h03.56.324,GuessTheSound,2020.2.10,Win32,60
,,,,,,,3,1,0.78198,0,18,18,18,1,Initial/Repeat/IceDrop.wav,3,,001,2021-01-07_16h03.56.324,GuessTheSound,2020.2.10,Win32,60
,,,,,,,2,1,1.7267,0,19,19,19,1,Siren_B.wav,2,,001,2021-01-07_16h03.56.324,GuessTheSound,2020.2.10,Win32,60
,,,,,,,3,1,0.648725,0,20,20,20,1,Test/Foils/PaperRip.wav,3,,001,2021-01-07_16h03.56.324,GuessTheSound,2020.2.10,Win32,60
,,,,,,,3,0,1.18949,0,21,21,21,1,Bird_C.wav,2,,001,2021-01-07_16h03.56.324,GuessTheSound,2020.2.10,Win32,60
,,,,,,,2,1,0.798165,0,22,22,22,1,Pour_D.wav,2,,001,2021-01-07_16h03.56.324,GuessTheSound,2020.2.10,Win32,60
,,,,,,,3,1,0.95649,0,23,23,23,1,Test/Foils/Camera.wav,3,,001,2021-01-07_16h03.56.324,GuessTheSound,2020.2.10,Win32,60
,,,,,,,1,1,1.035395,0,24,24,24,1,Initial/Doubled/Writing_A.wav,1,,001,2021-01-07_16h03.56.324,GuessTheSound,2020.2.10,Win32,60
,,,,,,,1,1,2.20716,0,25,25,25,1,Test/Foils/Typing.wav,1,,001,2021-01-07_16h03.56.324,GuessTheSound,2020.2.10,Win32,60
,,,,,,,3,1,1.46148,0,26,26,26,1,Initial/NoRepeat/Snore_B.wav,3,,001,2021-01-07_16h03.56.324,GuessTheSound,2020.2.10,Win32,60
,,,,,,,2,1,0.8563,0,27,27,27,1,Baby_C.wav,2,,001,2021-01-07_16h03.56.324,GuessTheSound,2020.2.10,Win32,60
,,,,,,,2,1,2.71526,0,28,28,28,1,Siren_C.wav,2,,001,2021-01-07_16h03.56.324,GuessTheSound,2020.2.10,Win32,60
,,,,,,,1,1,1.44741,0,29,29,29,1,Initial/Doubled/Chime_A.wav,1,,001,2021-01-07_16h03.56.324,GuessTheSound,2020.2.10,Win32,60
,,,,,,,2,1,1.343615,0,30,30,30,1,Piano_C.wav,2,,001,2021-01-07_16h03.56.324,GuessTheSound,2020.2.10,Win32,60
,,,,,,,1,1,1.26909,0,31,31,31,1,Initial/NoRepeat/Fireworks.wav,1,,001,2021-01-07_16h03.56.324,GuessTheSound,2020.2.10,Win32,60
,,,,,,,2,1,1.236925,0,32,32,32,1,Pour_C.wav,2,,001,2021-01-07_16h03.56.324,GuessTheSound,2020.2.10,Win32,60
,,,,,,,2,1,1.302635,0,33,33,33,1,Bird_D.wav,2,,001,2021-01-07_16h03.56.324,GuessTheSound,2020.2.10,Win32,60
,,,,,,,3,1,1.118685,0,34,34,34,1,Initial/Repeat/Airplane_B.wav,3,,001,2021-01-07_16h03.56.324,GuessTheSound,2020.2.10,Win32,60
,,,,,,,3,1,0.798535,0,35,35,35,1,Test/Foils/Buzz.wav,3,,001,2021-01-07_16h03.56.324,GuessTheSound,2020.2.10,Win32,60
,,,,,,,3,1,1.59832,0,36,36,36,1,Initial/Doubled/Growl_A.wav,3,,001,2021-01-07_16h03.56.324,GuessTheSound,2020.2.10,Win32,60
,,,,,,,3,0,1.158275,0,37,37,37,1,Test/Foils/Airhorn.wav,1,,001,2021-01-07_16h03.56.324,GuessTheSound,2020.2.10,Win32,60
,,,,,,,3,1,0.9146,0,38,38,38,1,Initial/Doubled/Chicken_A.wav,3,,001,2021-01-07_16h03.56.324,GuessTheSound,2020.2.10,Win32,60
,,,,,,,3,1,0.715305,0,39,39,39,1,Initial/Doubled/Laugh_A.wav,3,,001,2021-01-07_16h03.56.324,GuessTheSound,2020.2.10,Win32,60
,,,,,,,1,1,1.464075,0,40,40,40,1,Test/Foils/Typing.wav,1,,001,2021-01-07_16h03.56.324,GuessTheSound,2020.2.10,Win32,60
,,,,,,,3,1,0.60049,0,41,41,41,1,Initial/Doubled/Cough_A.wav,3,,001,2021-01-07_16h03.56.324,GuessTheSound,2020.2.10,Win32,60
,,,,,,,3,1,0.720855,0,42,42,42,1,Initial/Doubled/Clap_A.wav,3,,001,2021-01-07_16h03.56.324,GuessTheSound,2020.2.10,Win32,60
,,,,,,,1,1,2.03762,0,43,43,43,1,Initial/Doubled/Writing_A.wav,1,,001,2021-01-07_16h03.56.324,GuessTheSound,2020.2.10,Win32,60
,,,,,,,3,1,0.89814,0,44,44,44,1,Initial/Doubled/Chomp_A.wav,3,,001,2021-01-07_16h03.56.324,GuessTheSound,2020.2.10,Win32,60
,,,,,,,3,1,3.34798,0,45,45,45,1,Initial/Doubled/CarStart_A.wav,3,,001,2021-01-07_16h03.56.324,GuessTheSound,2020.2.10,Win32,60
,,,,,,,1,1,1.885055,0,46,46,46,1,Initial/NoRepeat/Fireworks.wav,1,,001,2021-01-07_16h03.56.324,GuessTheSound,2020.2.10,Win32,60
,,,,,,,3,1,0.98402,0,47,47,47,1,Initial/NoRepeat/Toilet_B.wav,3,,001,2021-01-07_16h03.56.324,GuessTheSound,2020.2.10,Win32,60
,,,,,,,3,1,11.681565,0,48,48,48,1,Test/Foils/Donkey.wav,3,,001,2021-01-07_16h03.56.324,GuessTheSound,2020.2.10,Win32,60
