ResponseBox.text,trials.thisRepN,trials.thisTrialN,trials.thisN,trials.thisIndex,trials.ran,SoundFiles,Type,participant,session,date,expName,psychopyVersion,OS,frameRate
,0,0,0,53,1,Initial/Repeat/Pingpong.wav,Repeat,,001,2020-12-21_14h15.14.636,GuessTheSound,2020.2.10,Win32,60
,0,1,1,58,1,Initial/Repeat/Trumpet_B.wav,Repeat,,001,2020-12-21_14h15.14.636,GuessTheSound,2020.2.10,Win32,60
,0,2,2,12,1,Initial/Doubled/Growl_A.wav,Doubled,,001,2020-12-21_14h15.14.636,GuessTheSound,2020.2.10,Win32,60
,0,3,3,5,1,Initial/Doubled/Cricket_A.wav,Doubled,,001,2020-12-21_14h15.14.636,GuessTheSound,2020.2.10,Win32,60
,0,4,4,2,1,Initial/Doubled/Chime_A.wav,Doubled,,001,2020-12-21_14h15.14.636,GuessTheSound,2020.2.10,Win32,60
,0,5,5,95,1,Test/Foils/PaperRip.wav,Extra,,001,2020-12-21_14h15.14.636,GuessTheSound,2020.2.10,Win32,60
,0,6,6,39,1,Initial/NoRepeat/Thunder_A.wav,NoRepeat,,001,2020-12-21_14h15.14.636,GuessTheSound,2020.2.10,Win32,60
,0,7,7,78,1,Test/Foils/Cards.wav,New,,001,2020-12-21_14h15.14.636,GuessTheSound,2020.2.10,Win32,60
,0,8,8,52,1,Initial/Repeat/Phone_A.wav,Repeat,,001,2020-12-21_14h15.14.636,GuessTheSound,2020.2.10,Win32,60
,0,9,9,68,1,Test/Foils/Donkey.wav,New,,001,2020-12-21_14h15.14.636,GuessTheSound,2020.2.10,Win32,60
,0,10,10,83,1,Initial/Doubled/Chomp_A.wav,Extra,,001,2020-12-21_14h15.14.636,GuessTheSound,2020.2.10,Win32,60
,0,11,11,73,1,Test/Foils/Kettle.wav,New,,001,2020-12-21_14h15.14.636,GuessTheSound,2020.2.10,Win32,60
,0,12,12,79,1,Test/Foils/Wind_B.wav,New,,001,2020-12-21_14h15.14.636,GuessTheSound,2020.2.10,Win32,60
,0,13,13,35,1,Initial/NoRepeat/Saw_A.wav,NoRepeat,,001,2020-12-21_14h15.14.636,GuessTheSound,2020.2.10,Win32,60
,0,14,14,32,1,Initial/NoRepeat/Mosquito_B.wav,NoRepeat,,001,2020-12-21_14h15.14.636,GuessTheSound,2020.2.10,Win32,60
,0,15,15,80,1,Test/Foils/Camera.wav,Extra,,001,2020-12-21_14h15.14.636,GuessTheSound,2020.2.10,Win32,60
,0,16,16,49,1,Initial/Repeat/Pour.wav,Repeat,,001,2020-12-21_14h15.14.636,GuessTheSound,2020.2.10,Win32,60
,0,17,17,75,1,Test/Foils/Robot.wav,New,,001,2020-12-21_14h15.14.636,GuessTheSound,2020.2.10,Win32,60
,0,18,18,7,1,Initial/Doubled/Dog_A.wav,Doubled,,001,2020-12-21_14h15.14.636,GuessTheSound,2020.2.10,Win32,60
,0,19,19,96,1,Initial/NoRepeat/Rooster_B.wav,Extra,,001,2020-12-21_14h15.14.636,GuessTheSound,2020.2.10,Win32,60
,0,20,20,13,1,Initial/Doubled/HairDryer_A.wav,Doubled,,001,2020-12-21_14h15.14.636,GuessTheSound,2020.2.10,Win32,60
,0,21,21,56,1,Initial/Repeat/Sneeze_B.wav,Repeat,,001,2020-12-21_14h15.14.636,GuessTheSound,2020.2.10,Win32,60
,0,22,22,61,1,Test/Foils/Axe.wav,New,,001,2020-12-21_14h15.14.636,GuessTheSound,2020.2.10,Win32,60
,0,23,23,9,1,Initial/Doubled/Piano_A.wav,Doubled,,001,2020-12-21_14h15.14.636,GuessTheSound,2020.2.10,Win32,60
,0,24,24,14,1,Initial/Doubled/Harp_A.wav,Doubled,,001,2020-12-21_14h15.14.636,GuessTheSound,2020.2.10,Win32,60
,0,25,25,11,1,Initial/Doubled/Siren_A.wav,Doubled,,001,2020-12-21_14h15.14.636,GuessTheSound,2020.2.10,Win32,60
,0,26,26,19,1,Initial/Doubled/Turkey_A.wav,Doubled,,001,2020-12-21_14h15.14.636,GuessTheSound,2020.2.10,Win32,60
,0,27,27,41,1,Initial/Repeat/Bat.wav,Repeat,,001,2020-12-21_14h15.14.636,GuessTheSound,2020.2.10,Win32,60
,0,28,28,44,1,Initial/Repeat/Cicade.wav,Repeat,,001,2020-12-21_14h15.14.636,GuessTheSound,2020.2.10,Win32,60
,0,29,29,6,1,Initial/Doubled/Cuckoo_A.wav,Doubled,,001,2020-12-21_14h15.14.636,GuessTheSound,2020.2.10,Win32,60
,0,30,30,16,1,Initial/Doubled/Owl_A.wav,Doubled,,001,2020-12-21_14h15.14.636,GuessTheSound,2020.2.10,Win32,60
,0,31,31,36,1,Initial/NoRepeat/Sax_A.wav,NoRepeat,,001,2020-12-21_14h15.14.636,GuessTheSound,2020.2.10,Win32,60
,0,32,32,74,1,Test/Foils/PartyHorn.wav,New,,001,2020-12-21_14h15.14.636,GuessTheSound,2020.2.10,Win32,60
,0,33,33,99,1,Initial/Doubled/Writing_A.wav,Extra,,001,2020-12-21_14h15.14.636,GuessTheSound,2020.2.10,Win32,60
,0,34,34,77,1,Test/Foils/Typing.wav,New,,001,2020-12-21_14h15.14.636,GuessTheSound,2020.2.10,Win32,60
,0,35,35,88,1,Test/Foils/DialTone.wav,Extra,,001,2020-12-21_14h15.14.636,GuessTheSound,2020.2.10,Win32,60
,0,36,36,67,1,Test/Foils/Curtain.wav,New,,001,2020-12-21_14h15.14.636,GuessTheSound,2020.2.10,Win32,60
,0,37,37,25,1,Initial/NoRepeat/Eagle_B.wav,NoRepeat,,001,2020-12-21_14h15.14.636,GuessTheSound,2020.2.10,Win32,60
,0,38,38,57,1,Initial/Repeat/Stir.wav,Repeat,,001,2020-12-21_14h15.14.636,GuessTheSound,2020.2.10,Win32,60
,0,39,39,45,1,Initial/Repeat/Cymbal_A.wav,Repeat,,001,2020-12-21_14h15.14.636,GuessTheSound,2020.2.10,Win32,60
,0,40,40,47,1,Initial/Repeat/Cup.wav,Repeat,,001,2020-12-21_14h15.14.636,GuessTheSound,2020.2.10,Win32,60
,0,41,41,71,1,Test/Foils/Heartbeat.wav,New,,001,2020-12-21_14h15.14.636,GuessTheSound,2020.2.10,Win32,60
,0,42,42,90,1,Initial/Doubled/Geese_A.wav,Extra,,001,2020-12-21_14h15.14.636,GuessTheSound,2020.2.10,Win32,60
,0,43,43,8,1,Initial/Doubled/Doorchime_A.wav,Doubled,,001,2020-12-21_14h15.14.636,GuessTheSound,2020.2.10,Win32,60
,0,44,44,21,1,Initial/NoRepeat/Chainsaw_A.wav,NoRepeat,,001,2020-12-21_14h15.14.636,GuessTheSound,2020.2.10,Win32,60
,0,45,45,81,1,Initial/Doubled/CarStart_A.wav,Extra,,001,2020-12-21_14h15.14.636,GuessTheSound,2020.2.10,Win32,60
,0,46,46,42,1,Initial/Repeat/Bagpipe.wav,Repeat,,001,2020-12-21_14h15.14.636,GuessTheSound,2020.2.10,Win32,60
,0,47,47,70,1,Test/Foils/Harmonica.wav,New,,001,2020-12-21_14h15.14.636,GuessTheSound,2020.2.10,Win32,60
,0,48,48,85,1,Initial/Doubled/Cough_A.wav,Extra,,001,2020-12-21_14h15.14.636,GuessTheSound,2020.2.10,Win32,60
,0,49,49,86,1,Initial/Doubled/Creak.wav,Extra,,001,2020-12-21_14h15.14.636,GuessTheSound,2020.2.10,Win32,60
,0,50,50,27,1,Initial/NoRepeat/Faucet_A.wav,NoRepeat,,001,2020-12-21_14h15.14.636,GuessTheSound,2020.2.10,Win32,60
,0,51,51,94,1,Initial/Repeat/IceDrop.wav,Extra,,001,2020-12-21_14h15.14.636,GuessTheSound,2020.2.10,Win32,60
,0,52,52,22,1,Initial/NoRepeat/Cow.wav,NoRepeat,,001,2020-12-21_14h15.14.636,GuessTheSound,2020.2.10,Win32,60
,0,53,53,38,1,Initial/NoRepeat/Snore_B.wav,NoRepeat,,001,2020-12-21_14h15.14.636,GuessTheSound,2020.2.10,Win32,60
,0,54,54,3,1,Initial/Doubled/Clap_A.wav,Doubled,,001,2020-12-21_14h15.14.636,GuessTheSound,2020.2.10,Win32,60
,0,55,55,84,1,Initial/Doubled/Clock_A.wav,Extra,,001,2020-12-21_14h15.14.636,GuessTheSound,2020.2.10,Win32,60
,0,56,56,18,1,Initial/Doubled/Surf_A.wav,Doubled,,001,2020-12-21_14h15.14.636,GuessTheSound,2020.2.10,Win32,60
,0,57,57,82,1,Initial/Doubled/Cat_A.wav,Extra,,001,2020-12-21_14h15.14.636,GuessTheSound,2020.2.10,Win32,60
,0,58,58,98,1,Initial/Doubled/Train_A.wav,Extra,,001,2020-12-21_14h15.14.636,GuessTheSound,2020.2.10,Win32,60
,0,59,59,20,1,Initial/NoRepeat/Baby_B.wav,NoRepeat,,001,2020-12-21_14h15.14.636,GuessTheSound,2020.2.10,Win32,60
,0,60,60,43,1,Initial/Repeat/Cello.wav,Repeat,,001,2020-12-21_14h15.14.636,GuessTheSound,2020.2.10,Win32,60
