VolumeContinueKey.keys,VolumeContinueKey.rt,ContinueResp.keys,ContinueResp.rt,Welcome2Continue.keys,Welcome2Continue.rt,WelcomeContinueKey2.keys,WelcomeContinueKey2.rt,Practice_resp.keys,Practice_resp.corr,Practice_resp.rt,PracticeTrials.thisRepN,PracticeTrials.thisTrialN,PracticeTrials.thisN,PracticeTrials.thisIndex,PracticeTrials.ran,SoundFiles3,Correct,participant,session,date,expName,psychopyVersion,OS,frameRate,StartTast.keys,StartTast.rt,MSTResp.keys,MSTResp.corr,MSTResp.rt,trials.thisRepN,trials.thisTrialN,trials.thisN,trials.thisIndex,trials.ran
space,0.08,space,1.298,space,0.445,space,0.819,3,1,4.882,0,0,0,0,1,Practice/Seagull_A.wav,3,,001,2021-01-18_20h33.39.939,GuessTheSound,2020.2.10,Win32,60,,,,,,,,,,
,,,,,,,,3,1,0.712,0,1,1,1,1,Practice/Skid_B.wav,3,,001,2021-01-18_20h33.39.939,GuessTheSound,2020.2.10,Win32,60,,,,,,,,,,
,,,,,,,,2,0,0.305,0,2,2,2,1,Practice/Seagull_A.wav,1,,001,2021-01-18_20h33.39.939,GuessTheSound,2020.2.10,Win32,60,,,,,,,,,,
,,,,,,,,3,1,0.4,0,3,3,3,1,Practice/Gargle_A.wav,3,,001,2021-01-18_20h33.39.939,GuessTheSound,2020.2.10,Win32,60,,,,,,,,,,
,,,,,,,,3,0,0.43,0,4,4,4,1,Practice/Gargle_B.wav,2,,001,2021-01-18_20h33.39.939,GuessTheSound,2020.2.10,Win32,60,,,,,,,,,,
,,,,,,,,,,,,,,,,Initial/NoRepeat/Elephant_A.wav,3,,001,2021-01-18_20h33.39.939,GuessTheSound,2020.2.10,Win32,60,space,3.171,3,1,1.697,0,0,0,0,1
,,,,,,,,,,,,,,,,Initial/Repeat/ManWhistle.wav,3,,001,2021-01-18_20h33.39.939,GuessTheSound,2020.2.10,Win32,60,,,3,1,0.505,0,1,1,1,1
,,,,,,,,,,,,,,,,Initial/Doubled/Cuckoo_A.wav,3,,001,2021-01-18_20h33.39.939,GuessTheSound,2020.2.10,Win32,60,,,3,1,0.404,0,2,2,2,1
,,,,,,,,,,,,,,,,Initial/Doubled/Piano_A.wav,3,,001,2021-01-18_20h33.39.939,GuessTheSound,2020.2.10,Win32,60,,,3,1,0.337,0,3,3,3,1
,,,,,,,,,,,,,,,,Initial/Doubled/Siren_A.wav,3,,001,2021-01-18_20h33.39.939,GuessTheSound,2020.2.10,Win32,60,,,3,1,2.379,0,4,4,4,1
,,,,,,,,,,,,,,,,Test/Foils/Bird.wav,3,,001,2021-01-18_20h33.39.939,GuessTheSound,2020.2.10,Win32,60,,,3,1,0.823,0,5,5,5,1
,,,,,,,,,,,,,,,,Initial/Doubled/Cat_A.wav,3,,001,2021-01-18_20h33.39.939,GuessTheSound,2020.2.10,Win32,60,,,3,1,0.722,0,6,6,6,1
,,,,,,,,,,,,,,,,Initial/NoRepeat/Baby_B.wav,3,,001,2021-01-18_20h33.39.939,GuessTheSound,2020.2.10,Win32,60,,,3,1,0.692,0,7,7,7,1
,,,,,,,,,,,,,,,,Initial/Doubled/Writing_A.wav,3,,001,2021-01-18_20h33.39.939,GuessTheSound,2020.2.10,Win32,60,,,3,1,0.421,0,8,8,8,1
,,,,,,,,,,,,,,,,Piano_B.wav,2,,001,2021-01-18_20h33.39.939,GuessTheSound,2020.2.10,Win32,60,,,2,1,0.741,0,9,9,9,1
,,,,,,,,,,,,,,,,Initial/NoRepeat/Sleighbells_B.wav,3,,001,2021-01-18_20h33.39.939,GuessTheSound,2020.2.10,Win32,60,,,3,1,0.272,0,10,10,10,1
,,,,,,,,,,,,,,,,Test/Foils/Typing.wav,3,,001,2021-01-18_20h33.39.939,GuessTheSound,2020.2.10,Win32,60,,,3,1,1.945,0,11,11,11,1
,,,,,,,,,,,,,,,,Initial/Repeat/Pour.wav,3,,001,2021-01-18_20h33.39.939,GuessTheSound,2020.2.10,Win32,60,,,3,1,0.456,0,12,12,12,1
,,,,,,,,,,,,,,,,Initial/Doubled/HairDryer_A.wav,3,,001,2021-01-18_20h33.39.939,GuessTheSound,2020.2.10,Win32,60,,,3,1,0.308,0,13,13,13,1
,,,,,,,,,,,,,,,,Initial/Doubled/Cuckoo_A.wav,1,,001,2021-01-18_20h33.39.939,GuessTheSound,2020.2.10,Win32,60,,,2,0,2.428,0,14,14,14,1
,,,,,,,,,,,,,,,,Initial/Doubled/Chime_A.wav,3,,001,2021-01-18_20h33.39.939,GuessTheSound,2020.2.10,Win32,60,,,2,0,1.122,0,15,15,15,1
,,,,,,,,,,,,,,,,Initial/NoRepeat/Fireworks.wav,3,,001,2021-01-18_20h33.39.939,GuessTheSound,2020.2.10,Win32,60,,,3,1,1.158,0,16,16,16,1
,,,,,,,,,,,,,,,,Baby_A.wav,2,,001,2021-01-18_20h33.39.939,GuessTheSound,2020.2.10,Win32,60,,,3,0,1.263,0,17,17,17,1
,,,,,,,,,,,,,,,,Test/Foils/DialTone.wav,3,,001,2021-01-18_20h33.39.939,GuessTheSound,2020.2.10,Win32,60,,,3,1,2.313,0,18,18,18,1
,,,,,,,,,,,,,,,,Siren_B.wav,2,,001,2021-01-18_20h33.39.939,GuessTheSound,2020.2.10,Win32,60,,,2,1,0.523,0,19,19,19,1
,,,,,,,,,,,,,,,,Initial/Repeat/Sneeze_B.wav,3,,001,2021-01-18_20h33.39.939,GuessTheSound,2020.2.10,Win32,60,,,3,1,7.383,0,20,20,20,1
,,,,,,,,,,,,,,,,Bird_C.wav,2,,001,2021-01-18_20h33.39.939,GuessTheSound,2020.2.10,Win32,60,,,3,0,2.114,0,21,21,21,1
,,,,,,,,,,,,,,,,Pour_D.wav,2,,001,2021-01-18_20h33.39.939,GuessTheSound,2020.2.10,Win32,60,,,3,0,0.74,0,22,22,22,1
,,,,,,,,,,,,,,,,Test/Foils/Camera.wav,3,,001,2021-01-18_20h33.39.939,GuessTheSound,2020.2.10,Win32,60,,,3,1,2.916,0,23,23,23,1
,,,,,,,,,,,,,,,,Initial/Doubled/Writing_A.wav,1,,001,2021-01-18_20h33.39.939,GuessTheSound,2020.2.10,Win32,60,,,2,0,0.387,0,24,24,24,1
,,,,,,,,,,,,,,,,Test/Foils/Typing.wav,1,,001,2021-01-18_20h33.39.939,GuessTheSound,2020.2.10,Win32,60,,,2,0,1.459,0,25,25,25,1
,,,,,,,,,,,,,,,,Initial/NoRepeat/Snore_B.wav,3,,001,2021-01-18_20h33.39.939,GuessTheSound,2020.2.10,Win32,60,,,3,1,0.529,0,26,26,26,1
,,,,,,,,,,,,,,,,Baby_C.wav,2,,001,2021-01-18_20h33.39.939,GuessTheSound,2020.2.10,Win32,60,,,3,0,0.64,0,27,27,27,1
,,,,,,,,,,,,,,,,Siren_C.wav,2,,001,2021-01-18_20h33.39.939,GuessTheSound,2020.2.10,Win32,60,,,3,0,0.839,0,28,28,28,1
,,,,,,,,,,,,,,,,Initial/Doubled/Chime_A.wav,1,,001,2021-01-18_20h33.39.939,GuessTheSound,2020.2.10,Win32,60,,,2,0,1.141,0,29,29,29,1
,,,,,,,,,,,,,,,,Piano_C.wav,2,,001,2021-01-18_20h33.39.939,GuessTheSound,2020.2.10,Win32,60,,,3,0,3.199,0,30,30,30,1
,,,,,,,,,,,,,,,,Initial/NoRepeat/Fireworks.wav,1,,001,2021-01-18_20h33.39.939,GuessTheSound,2020.2.10,Win32,60,,,3,0,13.238,0,31,31,31,1
,,,,,,,,,,,,,,,,Pour_C.wav,2,,001,2021-01-18_20h33.39.939,GuessTheSound,2020.2.10,Win32,60,,,2,1,0.459,0,32,32,32,1
,,,,,,,,,,,,,,,,Bird_D.wav,2,,001,2021-01-18_20h33.39.939,GuessTheSound,2020.2.10,Win32,60,,,3,0,0.873,0,33,33,33,1
,,,,,,,,,,,,,,,,Initial/Repeat/Airplane_B.wav,3,,001,2021-01-18_20h33.39.939,GuessTheSound,2020.2.10,Win32,60,,,3,1,0.89,0,34,34,34,1
,,,,,,,,,,,,,,,,Test/Foils/Buzz.wav,3,,001,2021-01-18_20h33.39.939,GuessTheSound,2020.2.10,Win32,60,,,3,1,0.3,0,35,35,35,1
,,,,,,,,,,,,,,,,Test/Foils/Donkey.wav,3,,001,2021-01-18_20h33.39.939,GuessTheSound,2020.2.10,Win32,60,,,3,1,2.631,0,36,36,36,1
,,,,,,,,,,,,,,,,Initial/Doubled/Cuckoo_A.wav,1,,001,2021-01-18_20h33.39.939,GuessTheSound,2020.2.10,Win32,60,,,2,0,1.861,0,37,37,37,1
,,,,,,,,,,,,,,,,Initial/Doubled/Chicken_A.wav,3,,001,2021-01-18_20h33.39.939,GuessTheSound,2020.2.10,Win32,60,,,2,0,0.841,0,38,38,38,1
,,,,,,,,,,,,,,,,Initial/Doubled/Laugh_A.wav,3,,001,2021-01-18_20h33.39.939,GuessTheSound,2020.2.10,Win32,60,,,3,1,0.341,0,39,39,39,1
,,,,,,,,,,,,,,,,Test/Foils/Typing.wav,1,,001,2021-01-18_20h33.39.939,GuessTheSound,2020.2.10,Win32,60,,,3,0,7.402,0,40,40,40,1
,,,,,,,,,,,,,,,,Initial/Doubled/Cough_A.wav,3,,001,2021-01-18_20h33.39.939,GuessTheSound,2020.2.10,Win32,60,,,3,1,3.886,0,41,41,41,1
,,,,,,,,,,,,,,,,Initial/Doubled/Clap_A.wav,3,,001,2021-01-18_20h33.39.939,GuessTheSound,2020.2.10,Win32,60,,,2,0,0.991,0,42,42,42,1
,,,,,,,,,,,,,,,,Initial/Doubled/Writing_A.wav,1,,001,2021-01-18_20h33.39.939,GuessTheSound,2020.2.10,Win32,60,,,2,0,0.388,0,43,43,43,1
,,,,,,,,,,,,,,,,Initial/Doubled/Chomp_A.wav,3,,001,2021-01-18_20h33.39.939,GuessTheSound,2020.2.10,Win32,60,,,3,1,0.005,0,44,44,44,1
,,,,,,,,,,,,,,,,Initial/Doubled/CarStart_A.wav,3,,001,2021-01-18_20h33.39.939,GuessTheSound,2020.2.10,Win32,60,,,3,1,3.856,0,45,45,45,1
,,,,,,,,,,,,,,,,Initial/NoRepeat/Fireworks.wav,1,,001,2021-01-18_20h33.39.939,GuessTheSound,2020.2.10,Win32,60,,,2,0,0.575,0,46,46,46,1
,,,,,,,,,,,,,,,,Initial/NoRepeat/Toilet_B.wav,3,,001,2021-01-18_20h33.39.939,GuessTheSound,2020.2.10,Win32,60,,,3,1,0.406,0,47,47,47,1
,,,,,,,,,,,,,,,,Initial/NoRepeat/Cow.wav,3,,001,2021-01-18_20h33.39.939,GuessTheSound,2020.2.10,Win32,60,,,3,1,1.677,0,48,48,48,1
,,,,,,,,,,,,,,,,Initial/NoRepeat/Helicopter_A.wav,3,,001,2021-01-18_20h33.39.939,GuessTheSound,2020.2.10,Win32,60,,,3,1,0.523,0,49,49,49,1
,,,,,,,,,,,,,,,,Initial/Doubled/Dog_A.wav,3,,001,2021-01-18_20h33.39.939,GuessTheSound,2020.2.10,Win32,60,,,2,0,0.44,0,50,50,50,1
,,,,,,,,,,,,,,,,Test/Foils/Wind_B.wav,3,,001,2021-01-18_20h33.39.939,GuessTheSound,2020.2.10,Win32,60,,,2,0,1.543,0,51,51,51,1
,,,,,,,,,,,,,,,,Initial/Doubled/Chime_A.wav,1,,001,2021-01-18_20h33.39.939,GuessTheSound,2020.2.10,Win32,60,,,3,0,0.675,0,52,52,52,1
,,,,,,,,,,,,,,,,Laugh_C.wav,2,,001,2021-01-18_20h33.39.939,GuessTheSound,2020.2.10,Win32,60,,,3,0,1.911,0,53,53,53,1
,,,,,,,,,,,,,,,,Cough_D.wav,2,,001,2021-01-18_20h33.39.939,GuessTheSound,2020.2.10,Win32,60,,,2,1,0.724,0,54,54,54,1
,,,,,,,,,,,,,,,,Test/Foils/Buzz.wav,1,,001,2021-01-18_20h33.39.939,GuessTheSound,2020.2.10,Win32,60,,,2,0,1.257,0,55,55,55,1
,,,,,,,,,,,,,,,,Initial/Repeat/IceDrop.wav,3,,001,2021-01-18_20h33.39.939,GuessTheSound,2020.2.10,Win32,60,,,3,1,2.572,0,56,56,56,1
,,,,,,,,,,,,,,,,Initial/NoRepeat/Toilet_B.wav,1,,001,2021-01-18_20h33.39.939,GuessTheSound,2020.2.10,Win32,60,,,3,0,2.397,0,57,57,57,1
,,,,,,,,,,,,,,,,CarStart_D.wav,2,,001,2021-01-18_20h33.39.939,GuessTheSound,2020.2.10,Win32,60,,,3,0,0.957,0,58,58,58,1
,,,,,,,,,,,,,,,,Chomp_B.wav,2,,001,2021-01-18_20h33.39.939,GuessTheSound,2020.2.10,Win32,60,,,3,0,0.958,0,59,59,59,1
,,,,,,,,,,,,,,,,Initial/Doubled/Clap_A.wav,1,,001,2021-01-18_20h33.39.939,GuessTheSound,2020.2.10,Win32,60,,,3,0,0.455,0,60,60,60,1
,,,,,,,,,,,,,,,,Initial/Doubled/Bubbles_A.wav,3,,001,2021-01-18_20h33.39.939,GuessTheSound,2020.2.10,Win32,60,,,3,1,0.422,0,61,61,61,1
,,,,,,,,,,,,,,,,Dog_C.wav,2,,001,2021-01-18_20h33.39.939,GuessTheSound,2020.2.10,Win32,60,,,3,0,0.54,0,62,62,62,1
,,,,,,,,,,,,,,,,Laugh_D.wav,2,,001,2021-01-18_20h33.39.939,GuessTheSound,2020.2.10,Win32,60,,,2,1,7.133,0,63,63,63,1
,,,,,,,,,,,,,,,,Initial/NoRepeat/Helicopter_A.wav,1,,001,2021-01-18_20h33.39.939,GuessTheSound,2020.2.10,Win32,60,,,2,0,0.706,0,64,64,64,1
,,,,,,,,,,,,,,,,Cough_C.wav,2,,001,2021-01-18_20h33.39.939,GuessTheSound,2020.2.10,Win32,60,,,3,0,5.945,0,65,65,65,1
,,,,,,,,,,,,,,,,Test/Foils/PaperRip.wav,3,,001,2021-01-18_20h33.39.939,GuessTheSound,2020.2.10,Win32,60,,,2,0,2.157,0,66,66,66,1
,,,,,,,,,,,,,,,,Test/Foils/Wind_B.wav,1,,001,2021-01-18_20h33.39.939,GuessTheSound,2020.2.10,Win32,60,,,3,0,1.591,0,67,67,67,1
,,,,,,,,,,,,,,,,CarStart_B.wav,2,,001,2021-01-18_20h33.39.939,GuessTheSound,2020.2.10,Win32,60,,,3,0,5.984,0,68,68,68,1
,,,,,,,,,,,,,,,,Chomp_C.wav,2,,001,2021-01-18_20h33.39.939,GuessTheSound,2020.2.10,Win32,60,,,3,0,3.199,0,69,69,69,1
,,,,,,,,,,,,,,,,Initial/Doubled/Coin_A.wav,3,,001,2021-01-18_20h33.39.939,GuessTheSound,2020.2.10,Win32,60,,,2,0,9.376,0,70,70,70,1
,,,,,,,,,,,,,,,,Test/Foils/Buzz.wav,1,,001,2021-01-18_20h33.39.939,GuessTheSound,2020.2.10,Win32,60,,,2,0,2.212,0,71,71,71,1
