VolumeContinueKey.keys,VolumeContinueKey.rt,HeadphoneContinueKey.keys,HeadphoneContinueKey.rt,CheckResp.keys,CheckResp.corr,CheckResp.rt,HeadphoneTrials.thisRepN,HeadphoneTrials.thisTrialN,HeadphoneTrials.thisN,HeadphoneTrials.thisIndex,HeadphoneTrials.ran,File,Correct,participant,session,date,expName,psychopyVersion,OS,frameRate,ContinueResp.keys,ContinueResp.rt,Wel2ContinueKey.keys,Wel2ContinueKey.rt,WelcomeContinueKey2.keys,WelcomeContinueKey2.rt,Practice_resp.keys,Practice_resp.corr,Practice_resp.rt,PracticeTrials.thisRepN,PracticeTrials.thisTrialN,PracticeTrials.thisN,PracticeTrials.thisIndex,PracticeTrials.ran,SoundFiles3,StartTast.keys,StartTast.rt,MSTResp.keys,MSTResp.corr,MSTResp.rt,trials.thisRepN,trials.thisTrialN,trials.thisN,trials.thisIndex,trials.ran,ExitKey.keys,ExitKey.rt
space,0.62298,space,1.33258,1,1,0.937115,0,0,0,0,1,Headphone/t1_1.wav,1,,001,2021-01-22_16h51.36.177,GuessTheSound,2020.2.10,Win32,60,,,,,,,,,,,,,,,,,,,,,,,,,,,
,,,,3,1,0.683815,0,1,1,5,1,Headphone/t3_2.wav,3,,001,2021-01-22_16h51.36.177,GuessTheSound,2020.2.10,Win32,60,,,,,,,,,,,,,,,,,,,,,,,,,,,
,,,,1,1,0.407135,0,2,2,1,1,Headphone/t1_2.wav,1,,001,2021-01-22_16h51.36.177,GuessTheSound,2020.2.10,Win32,60,,,,,,,,,,,,,,,,,,,,,,,,,,,
,,,,3,1,0.361135,0,3,3,4,1,Headphone/t3_1.wav,3,,001,2021-01-22_16h51.36.177,GuessTheSound,2020.2.10,Win32,60,,,,,,,,,,,,,,,,,,,,,,,,,,,
,,,,2,1,0.495415,0,4,4,3,1,Headphone/t2_2.wav,2,,001,2021-01-22_16h51.36.177,GuessTheSound,2020.2.10,Win32,60,,,,,,,,,,,,,,,,,,,,,,,,,,,
,,,,2,1,0.628415,0,5,5,2,1,Headphone/t2_1.wav,2,,001,2021-01-22_16h51.36.177,GuessTheSound,2020.2.10,Win32,60,,,,,,,,,,,,,,,,,,,,,,,,,,,
,,,,,,,,,,,,,3,,001,2021-01-22_16h51.36.177,GuessTheSound,2020.2.10,Win32,60,space,5.028695,space,1.432265,space,2.08431,3,1,2.404015,0,0,0,0,1,Practice/Seagull_A.wav,,,,,,,,,,,,
,,,,,,,,,,,,,3,,001,2021-01-22_16h51.36.177,GuessTheSound,2020.2.10,Win32,60,,,,,,,3,1,1.339475,0,1,1,1,1,Practice/Skid_B.wav,,,,,,,,,,,,
,,,,,,,,,,,,,1,,001,2021-01-22_16h51.36.177,GuessTheSound,2020.2.10,Win32,60,,,,,,,1,1,5.229565,0,2,2,2,1,Practice/Seagull_A.wav,,,,,,,,,,,,
,,,,,,,,,,,,,3,,001,2021-01-22_16h51.36.177,GuessTheSound,2020.2.10,Win32,60,,,,,,,3,1,1.915315,0,3,3,3,1,Practice/Gargle_A.wav,,,,,,,,,,,,
,,,,,,,,,,,,,2,,001,2021-01-22_16h51.36.177,GuessTheSound,2020.2.10,Win32,60,,,,,,,2,1,2.6092,0,4,4,4,1,Practice/Gargle_B.wav,,,,,,,,,,,,
,,,,,,,,,,,,,3,,001,2021-01-22_16h51.36.177,GuessTheSound,2020.2.10,Win32,60,,,,,,,,,,,,,,,Initial/NoRepeat/Elephant_A.wav,space,5.99484,3,1,7.519965,0,0,0,0,1,,
,,,,,,,,,,,,,3,,001,2021-01-22_16h51.36.177,GuessTheSound,2020.2.10,Win32,60,,,,,,,,,,,,,,,Initial/Repeat/ManWhistle.wav,,,3,1,0.626655,0,1,1,1,1,,
,,,,,,,,,,,,,3,,001,2021-01-22_16h51.36.177,GuessTheSound,2020.2.10,Win32,60,,,,,,,,,,,,,,,Initial/Doubled/Cuckoo_A.wav,,,3,1,0.923505,0,2,2,2,1,,
,,,,,,,,,,,,,3,,001,2021-01-22_16h51.36.177,GuessTheSound,2020.2.10,Win32,60,,,,,,,,,,,,,,,Initial/Doubled/Piano_A.wav,,,3,1,0.540905,0,3,3,3,1,,
,,,,,,,,,,,,,3,,001,2021-01-22_16h51.36.177,GuessTheSound,2020.2.10,Win32,60,,,,,,,,,,,,,,,Initial/Doubled/Siren_A.wav,,,3,1,0.651775,0,4,4,4,1,,
,,,,,,,,,,,,,3,,001,2021-01-22_16h51.36.177,GuessTheSound,2020.2.10,Win32,60,,,,,,,,,,,,,,,Test/Foils/Bird.wav,,,3,1,1.03663,0,5,5,5,1,,
,,,,,,,,,,,,,3,,001,2021-01-22_16h51.36.177,GuessTheSound,2020.2.10,Win32,60,,,,,,,,,,,,,,,Initial/Doubled/Cat_A.wav,,,3,1,0.95654,0,6,6,6,1,,
,,,,,,,,,,,,,3,,001,2021-01-22_16h51.36.177,GuessTheSound,2020.2.10,Win32,60,,,,,,,,,,,,,,,Initial/NoRepeat/Baby_B.wav,,,3,1,5.71773,0,7,7,7,1,,
,,,,,,,,,,,,,3,,001,2021-01-22_16h51.36.177,GuessTheSound,2020.2.10,Win32,60,,,,,,,,,,,,,,,Initial/Doubled/Writing_A.wav,,,3,1,1.77095,0,8,8,8,1,,
,,,,,,,,,,,,,2,,001,2021-01-22_16h51.36.177,GuessTheSound,2020.2.10,Win32,60,,,,,,,,,,,,,,,Piano_B.wav,,,2,1,5.588525,0,9,9,9,1,,
,,,,,,,,,,,,,3,,001,2021-01-22_16h51.36.177,GuessTheSound,2020.2.10,Win32,60,,,,,,,,,,,,,,,Initial/NoRepeat/Sleighbells_B.wav,,,3,1,0.994035,0,10,10,10,1,,
,,,,,,,,,,,,,3,,001,2021-01-22_16h51.36.177,GuessTheSound,2020.2.10,Win32,60,,,,,,,,,,,,,,,Test/Foils/Typing.wav,,,3,1,1.887265,0,11,11,11,1,,
,,,,,,,,,,,,,3,,001,2021-01-22_16h51.36.177,GuessTheSound,2020.2.10,Win32,60,,,,,,,,,,,,,,,Initial/Repeat/Pour.wav,,,3,1,0.938825,0,12,12,12,1,,
,,,,,,,,,,,,,3,,001,2021-01-22_16h51.36.177,GuessTheSound,2020.2.10,Win32,60,,,,,,,,,,,,,,,Initial/Doubled/HairDryer_A.wav,,,3,1,0.66869,0,13,13,13,1,,
,,,,,,,,,,,,,1,,001,2021-01-22_16h51.36.177,GuessTheSound,2020.2.10,Win32,60,,,,,,,,,,,,,,,Initial/Doubled/Cuckoo_A.wav,,,1,1,1.16906,0,14,14,14,1,,
,,,,,,,,,,,,,3,,001,2021-01-22_16h51.36.177,GuessTheSound,2020.2.10,Win32,60,,,,,,,,,,,,,,,Initial/Doubled/Chime_A.wav,,,3,1,0.96823,0,15,15,15,1,,
,,,,,,,,,,,,,3,,001,2021-01-22_16h51.36.177,GuessTheSound,2020.2.10,Win32,60,,,,,,,,,,,,,,,Initial/NoRepeat/Fireworks.wav,,,3,1,2.69039,0,16,16,16,1,,
,,,,,,,,,,,,,2,,001,2021-01-22_16h51.36.177,GuessTheSound,2020.2.10,Win32,60,,,,,,,,,,,,,,,Baby_A.wav,,,2,1,0.562765,0,17,17,17,1,,
,,,,,,,,,,,,,3,,001,2021-01-22_16h51.36.177,GuessTheSound,2020.2.10,Win32,60,,,,,,,,,,,,,,,Test/Foils/DialTone.wav,,,1,0,0.84888,0,18,18,18,1,,
,,,,,,,,,,,,,2,,001,2021-01-22_16h51.36.177,GuessTheSound,2020.2.10,Win32,60,,,,,,,,,,,,,,,Siren_B.wav,,,3,0,0.96779,0,19,19,19,1,,
,,,,,,,,,,,,,3,,001,2021-01-22_16h51.36.177,GuessTheSound,2020.2.10,Win32,60,,,,,,,,,,,,,,,Initial/Repeat/Sneeze_B.wav,,,3,1,2.678715,0,20,20,20,1,,
,,,,,,,,,,,,,2,,001,2021-01-22_16h51.36.177,GuessTheSound,2020.2.10,Win32,60,,,,,,,,,,,,,,,Bird_C.wav,,,2,1,0.735575,0,21,21,21,1,,
,,,,,,,,,,,,,2,,001,2021-01-22_16h51.36.177,GuessTheSound,2020.2.10,Win32,60,,,,,,,,,,,,,,,Pour_D.wav,,,1,0,1.11655,0,22,22,22,1,,
,,,,,,,,,,,,,3,,001,2021-01-22_16h51.36.177,GuessTheSound,2020.2.10,Win32,60,,,,,,,,,,,,,,,Test/Foils/Camera.wav,,,3,1,1.202855,0,23,23,23,1,,
,,,,,,,,,,,,,1,,001,2021-01-22_16h51.36.177,GuessTheSound,2020.2.10,Win32,60,,,,,,,,,,,,,,,Initial/Doubled/Writing_A.wav,,,1,1,1.034085,0,24,24,24,1,,
,,,,,,,,,,,,,1,,001,2021-01-22_16h51.36.177,GuessTheSound,2020.2.10,Win32,60,,,,,,,,,,,,,,,Test/Foils/Typing.wav,,,3,0,1.099995,0,25,25,25,1,,
,,,,,,,,,,,,,3,,001,2021-01-22_16h51.36.177,GuessTheSound,2020.2.10,Win32,60,,,,,,,,,,,,,,,Initial/NoRepeat/Snore_B.wav,,,3,1,2.4747,0,26,26,26,1,,
,,,,,,,,,,,,,2,,001,2021-01-22_16h51.36.177,GuessTheSound,2020.2.10,Win32,60,,,,,,,,,,,,,,,Baby_C.wav,,,2,1,0.63389,0,27,27,27,1,,
,,,,,,,,,,,,,2,,001,2021-01-22_16h51.36.177,GuessTheSound,2020.2.10,Win32,60,,,,,,,,,,,,,,,Siren_C.wav,,,2,1,1.217625,0,28,28,28,1,,
,,,,,,,,,,,,,1,,001,2021-01-22_16h51.36.177,GuessTheSound,2020.2.10,Win32,60,,,,,,,,,,,,,,,Initial/Doubled/Chime_A.wav,,,1,1,1.136075,0,29,29,29,1,,
,,,,,,,,,,,,,2,,001,2021-01-22_16h51.36.177,GuessTheSound,2020.2.10,Win32,60,,,,,,,,,,,,,,,Piano_C.wav,,,2,1,0.885025,0,30,30,30,1,,
,,,,,,,,,,,,,1,,001,2021-01-22_16h51.36.177,GuessTheSound,2020.2.10,Win32,60,,,,,,,,,,,,,,,Initial/NoRepeat/Fireworks.wav,,,1,1,0.55783,0,31,31,31,1,,
,,,,,,,,,,,,,2,,001,2021-01-22_16h51.36.177,GuessTheSound,2020.2.10,Win32,60,,,,,,,,,,,,,,,Pour_C.wav,,,2,1,1.063985,0,32,32,32,1,,
,,,,,,,,,,,,,2,,001,2021-01-22_16h51.36.177,GuessTheSound,2020.2.10,Win32,60,,,,,,,,,,,,,,,Bird_D.wav,,,2,1,1.024415,0,33,33,33,1,,
,,,,,,,,,,,,,3,,001,2021-01-22_16h51.36.177,GuessTheSound,2020.2.10,Win32,60,,,,,,,,,,,,,,,Initial/Repeat/Airplane_B.wav,,,3,1,0.885985,0,34,34,34,1,,
,,,,,,,,,,,,,3,,001,2021-01-22_16h51.36.177,GuessTheSound,2020.2.10,Win32,60,,,,,,,,,,,,,,,Test/Foils/Buzz.wav,,,3,1,0.505735,0,35,35,35,1,,
,,,,,,,,,,,,,3,,001,2021-01-22_16h51.36.177,GuessTheSound,2020.2.10,Win32,60,,,,,,,,,,,,,,,Test/Foils/Donkey.wav,,,3,1,0.54933,0,36,36,36,1,,
,,,,,,,,,,,,,1,,001,2021-01-22_16h51.36.177,GuessTheSound,2020.2.10,Win32,60,,,,,,,,,,,,,,,Initial/Doubled/Cuckoo_A.wav,,,1,1,0.40495,0,37,37,37,1,,
,,,,,,,,,,,,,3,,001,2021-01-22_16h51.36.177,GuessTheSound,2020.2.10,Win32,60,,,,,,,,,,,,,,,Initial/Doubled/Chicken_A.wav,,,3,1,1.551315,0,38,38,38,1,,
,,,,,,,,,,,,,3,,001,2021-01-22_16h51.36.177,GuessTheSound,2020.2.10,Win32,60,,,,,,,,,,,,,,,Initial/Doubled/Laugh_A.wav,,,1,0,0.73563,0,39,39,39,1,,
,,,,,,,,,,,,,1,,001,2021-01-22_16h51.36.177,GuessTheSound,2020.2.10,Win32,60,,,,,,,,,,,,,,,Test/Foils/Typing.wav,,,1,1,0.5364,0,40,40,40,1,,
,,,,,,,,,,,,,3,,001,2021-01-22_16h51.36.177,GuessTheSound,2020.2.10,Win32,60,,,,,,,,,,,,,,,Initial/Doubled/Cough_A.wav,,,3,1,1.334825,0,41,41,41,1,,
,,,,,,,,,,,,,3,,001,2021-01-22_16h51.36.177,GuessTheSound,2020.2.10,Win32,60,,,,,,,,,,,,,,,Initial/Doubled/Clap_A.wav,,,3,1,0.91346,0,42,42,42,1,,
,,,,,,,,,,,,,1,,001,2021-01-22_16h51.36.177,GuessTheSound,2020.2.10,Win32,60,,,,,,,,,,,,,,,Initial/Doubled/Writing_A.wav,,,1,1,0.70086,0,43,43,43,1,,
,,,,,,,,,,,,,3,,001,2021-01-22_16h51.36.177,GuessTheSound,2020.2.10,Win32,60,,,,,,,,,,,,,,,Initial/Doubled/Chomp_A.wav,,,1,0,1.222405,0,44,44,44,1,,
,,,,,,,,,,,,,3,,001,2021-01-22_16h51.36.177,GuessTheSound,2020.2.10,Win32,60,,,,,,,,,,,,,,,Initial/Doubled/CarStart_A.wav,,,3,1,0.475625,0,45,45,45,1,,
,,,,,,,,,,,,,1,,001,2021-01-22_16h51.36.177,GuessTheSound,2020.2.10,Win32,60,,,,,,,,,,,,,,,Initial/NoRepeat/Fireworks.wav,,,1,1,0.392595,0,46,46,46,1,,
,,,,,,,,,,,,,3,,001,2021-01-22_16h51.36.177,GuessTheSound,2020.2.10,Win32,60,,,,,,,,,,,,,,,Initial/NoRepeat/Toilet_B.wav,,,3,1,3.94851,0,47,47,47,1,,
,,,,,,,,,,,,,3,,001,2021-01-22_16h51.36.177,GuessTheSound,2020.2.10,Win32,60,,,,,,,,,,,,,,,Initial/NoRepeat/Cow.wav,,,3,1,1.59167,0,48,48,48,1,,
,,,,,,,,,,,,,3,,001,2021-01-22_16h51.36.177,GuessTheSound,2020.2.10,Win32,60,,,,,,,,,,,,,,,Initial/NoRepeat/Helicopter_A.wav,,,3,1,1.21194,0,49,49,49,1,,
,,,,,,,,,,,,,3,,001,2021-01-22_16h51.36.177,GuessTheSound,2020.2.10,Win32,60,,,,,,,,,,,,,,,Initial/Doubled/Dog_A.wav,,,3,1,1.001365,0,50,50,50,1,,
,,,,,,,,,,,,,3,,001,2021-01-22_16h51.36.177,GuessTheSound,2020.2.10,Win32,60,,,,,,,,,,,,,,,Test/Foils/Wind_B.wav,,,3,1,0.95522,0,51,51,51,1,,
,,,,,,,,,,,,,1,,001,2021-01-22_16h51.36.177,GuessTheSound,2020.2.10,Win32,60,,,,,,,,,,,,,,,Initial/Doubled/Chime_A.wav,,,1,1,0.63756,0,52,52,52,1,,
,,,,,,,,,,,,,2,,001,2021-01-22_16h51.36.177,GuessTheSound,2020.2.10,Win32,60,,,,,,,,,,,,,,,Laugh_C.wav,,,2,1,0.707155,0,53,53,53,1,,
,,,,,,,,,,,,,2,,001,2021-01-22_16h51.36.177,GuessTheSound,2020.2.10,Win32,60,,,,,,,,,,,,,,,Cough_D.wav,,,2,1,2.21671,0,54,54,54,1,,
,,,,,,,,,,,,,1,,001,2021-01-22_16h51.36.177,GuessTheSound,2020.2.10,Win32,60,,,,,,,,,,,,,,,Test/Foils/Buzz.wav,,,1,1,0.951235,0,55,55,55,1,,
,,,,,,,,,,,,,3,,001,2021-01-22_16h51.36.177,GuessTheSound,2020.2.10,Win32,60,,,,,,,,,,,,,,,Initial/Repeat/IceDrop.wav,,,3,1,1.318355,0,56,56,56,1,,
,,,,,,,,,,,,,1,,001,2021-01-22_16h51.36.177,GuessTheSound,2020.2.10,Win32,60,,,,,,,,,,,,,,,Initial/NoRepeat/Toilet_B.wav,,,1,1,0.513555,0,57,57,57,1,,
,,,,,,,,,,,,,2,,001,2021-01-22_16h51.36.177,GuessTheSound,2020.2.10,Win32,60,,,,,,,,,,,,,,,CarStart_D.wav,,,2,1,1.91136,0,58,58,58,1,,
,,,,,,,,,,,,,2,,001,2021-01-22_16h51.36.177,GuessTheSound,2020.2.10,Win32,60,,,,,,,,,,,,,,,Chomp_B.wav,,,2,1,0.982985,0,59,59,59,1,,
,,,,,,,,,,,,,1,,001,2021-01-22_16h51.36.177,GuessTheSound,2020.2.10,Win32,60,,,,,,,,,,,,,,,Initial/Doubled/Clap_A.wav,,,1,1,0.86545,0,60,60,60,1,,
,,,,,,,,,,,,,3,,001,2021-01-22_16h51.36.177,GuessTheSound,2020.2.10,Win32,60,,,,,,,,,,,,,,,Initial/Doubled/Bubbles_A.wav,,,3,1,0.984565,0,61,61,61,1,,
,,,,,,,,,,,,,2,,001,2021-01-22_16h51.36.177,GuessTheSound,2020.2.10,Win32,60,,,,,,,,,,,,,,,Dog_C.wav,,,2,1,0.851215,0,62,62,62,1,,
,,,,,,,,,,,,,2,,001,2021-01-22_16h51.36.177,GuessTheSound,2020.2.10,Win32,60,,,,,,,,,,,,,,,Laugh_D.wav,,,2,1,0.83468,0,63,63,63,1,,
,,,,,,,,,,,,,1,,001,2021-01-22_16h51.36.177,GuessTheSound,2020.2.10,Win32,60,,,,,,,,,,,,,,,Initial/NoRepeat/Helicopter_A.wav,,,1,1,0.53413,0,64,64,64,1,,
,,,,,,,,,,,,,2,,001,2021-01-22_16h51.36.177,GuessTheSound,2020.2.10,Win32,60,,,,,,,,,,,,,,,Cough_C.wav,,,2,1,1.235155,0,65,65,65,1,,
,,,,,,,,,,,,,3,,001,2021-01-22_16h51.36.177,GuessTheSound,2020.2.10,Win32,60,,,,,,,,,,,,,,,Test/Foils/PaperRip.wav,,,3,1,1.203195,0,66,66,66,1,,
,,,,,,,,,,,,,1,,001,2021-01-22_16h51.36.177,GuessTheSound,2020.2.10,Win32,60,,,,,,,,,,,,,,,Test/Foils/Wind_B.wav,,,1,1,0.72524,0,67,67,67,1,,
,,,,,,,,,,,,,2,,001,2021-01-22_16h51.36.177,GuessTheSound,2020.2.10,Win32,60,,,,,,,,,,,,,,,CarStart_B.wav,,,1,0,0.64511,0,68,68,68,1,,
,,,,,,,,,,,,,2,,001,2021-01-22_16h51.36.177,GuessTheSound,2020.2.10,Win32,60,,,,,,,,,,,,,,,Chomp_C.wav,,,2,1,0.75675,0,69,69,69,1,,
,,,,,,,,,,,,,3,,001,2021-01-22_16h51.36.177,GuessTheSound,2020.2.10,Win32,60,,,,,,,,,,,,,,,Initial/Doubled/Coin_A.wav,,,3,1,1.06896,0,70,70,70,1,,
,,,,,,,,,,,,,1,,001,2021-01-22_16h51.36.177,GuessTheSound,2020.2.10,Win32,60,,,,,,,,,,,,,,,Test/Foils/Buzz.wav,,,1,1,0.46777,0,71,71,71,1,,
,,,,,,,,,,,,,3,,001,2021-01-22_16h51.36.177,GuessTheSound,2020.2.10,Win32,60,,,,,,,,,,,,,,,Initial/NoRepeat/Droplet_B.wav,,,3,1,0.98458,0,72,72,72,1,,
,,,,,,,,,,,,,3,,001,2021-01-22_16h51.36.177,GuessTheSound,2020.2.10,Win32,60,,,,,,,,,,,,,,,Initial/Doubled/Guitar_A.wav,,,3,1,0.86936,0,73,73,73,1,,
,,,,,,,,,,,,,1,,001,2021-01-22_16h51.36.177,GuessTheSound,2020.2.10,Win32,60,,,,,,,,,,,,,,,Initial/NoRepeat/Toilet_B.wav,,,1,1,0.595405,0,74,74,74,1,,
,,,,,,,,,,,,,2,,001,2021-01-22_16h51.36.177,GuessTheSound,2020.2.10,Win32,60,,,,,,,,,,,,,,,Dog_D.wav,,,2,1,1.15674,0,75,75,75,1,,
,,,,,,,,,,,,,1,,001,2021-01-22_16h51.36.177,GuessTheSound,2020.2.10,Win32,60,,,,,,,,,,,,,,,Initial/Doubled/Clap_A.wav,,,1,1,0.678075,0,76,76,76,1,,
,,,,,,,,,,,,,1,,001,2021-01-22_16h51.36.177,GuessTheSound,2020.2.10,Win32,60,,,,,,,,,,,,,,,Test/Foils/PaperRip.wav,,,1,1,0.6676,0,77,77,77,1,,
,,,,,,,,,,,,,1,,001,2021-01-22_16h51.36.177,GuessTheSound,2020.2.10,Win32,60,,,,,,,,,,,,,,,Test/Foils/Wind_B.wav,,,1,1,0.90083,0,78,78,78,1,,
,,,,,,,,,,,,,1,,001,2021-01-22_16h51.36.177,GuessTheSound,2020.2.10,Win32,60,,,,,,,,,,,,,,,Initial/NoRepeat/Helicopter_A.wav,,,1,1,0.63835,0,79,79,79,1,,
,,,,,,,,,,,,,3,,001,2021-01-22_16h51.36.177,GuessTheSound,2020.2.10,Win32,60,,,,,,,,,,,,,,,Initial/NoRepeat/Goat_B.wav,,,3,1,0.70842,0,80,80,80,1,,
,,,,,,,,,,,,,2,,001,2021-01-22_16h51.36.177,GuessTheSound,2020.2.10,Win32,60,,,,,,,,,,,,,,,Coin_B.wav,,,2,1,3.169295,0,81,81,81,1,,
,,,,,,,,,,,,,3,,001,2021-01-22_16h51.36.177,GuessTheSound,2020.2.10,Win32,60,,,,,,,,,,,,,,,Test/Foils/Bullfrog.wav,,,3,1,0.950355,0,82,82,82,1,,
,,,,,,,,,,,,,3,,001,2021-01-22_16h51.36.177,GuessTheSound,2020.2.10,Win32,60,,,,,,,,,,,,,,,Initial/NoRepeat/Thunder_A.wav,,,3,1,1.074085,0,83,83,83,1,,
,,,,,,,,,,,,,3,,001,2021-01-22_16h51.36.177,GuessTheSound,2020.2.10,Win32,60,,,,,,,,,,,,,,,Initial/NoRepeat/Faucet_A.wav,,,3,1,1.59128,0,84,84,84,1,,
,,,,,,,,,,,,,3,,001,2021-01-22_16h51.36.177,GuessTheSound,2020.2.10,Win32,60,,,,,,,,,,,,,,,Initial/Repeat/Phone_A.wav,,,3,1,0.68433,0,85,85,85,1,,
,,,,,,,,,,,,,1,,001,2021-01-22_16h51.36.177,GuessTheSound,2020.2.10,Win32,60,,,,,,,,,,,,,,,Test/Foils/PaperRip.wav,,,1,1,0.80986,0,86,86,86,1,,
,,,,,,,,,,,,,3,,001,2021-01-22_16h51.36.177,GuessTheSound,2020.2.10,Win32,60,,,,,,,,,,,,,,,Initial/Doubled/Growl_A.wav,,,3,1,0.619175,0,87,87,87,1,,
,,,,,,,,,,,,,3,,001,2021-01-22_16h51.36.177,GuessTheSound,2020.2.10,Win32,60,,,,,,,,,,,,,,,Initial/Repeat/Howl.wav,,,3,1,1.03388,0,88,88,88,1,,
,,,,,,,,,,,,,2,,001,2021-01-22_16h51.36.177,GuessTheSound,2020.2.10,Win32,60,,,,,,,,,,,,,,,Goat_A.wav,,,2,1,2.00084,0,89,89,89,1,,
,,,,,,,,,,,,,2,,001,2021-01-22_16h51.36.177,GuessTheSound,2020.2.10,Win32,60,,,,,,,,,,,,,,,Coin_C.wav,,,3,0,4.24059,0,90,90,90,1,,
,,,,,,,,,,,,,3,,001,2021-01-22_16h51.36.177,GuessTheSound,2020.2.10,Win32,60,,,,,,,,,,,,,,,Initial/Repeat/Whistle_A.wav,,,3,1,1.251715,0,91,91,91,1,,
,,,,,,,,,,,,,3,,001,2021-01-22_16h51.36.177,GuessTheSound,2020.2.10,Win32,60,,,,,,,,,,,,,,,Initial/NoRepeat/Puff_A.wav,,,3,1,0.683795,0,92,92,92,1,,
,,,,,,,,,,,,,1,,001,2021-01-22_16h51.36.177,GuessTheSound,2020.2.10,Win32,60,,,,,,,,,,,,,,,Test/Foils/Bullfrog.wav,,,1,1,2.777135,0,93,93,93,1,,
,,,,,,,,,,,,,2,,001,2021-01-22_16h51.36.177,GuessTheSound,2020.2.10,Win32,60,,,,,,,,,,,,,,,Phone_C.wav,,,2,1,2.43998,0,94,94,94,1,,
,,,,,,,,,,,,,2,,001,2021-01-22_16h51.36.177,GuessTheSound,2020.2.10,Win32,60,,,,,,,,,,,,,,,Growl_B.wav,,,2,1,1.70087,0,95,95,95,1,,
,,,,,,,,,,,,,1,,001,2021-01-22_16h51.36.177,GuessTheSound,2020.2.10,Win32,60,,,,,,,,,,,,,,,Initial/NoRepeat/Thunder_A.wav,,,1,1,1.228235,0,96,96,96,1,,
,,,,,,,,,,,,,1,,001,2021-01-22_16h51.36.177,GuessTheSound,2020.2.10,Win32,60,,,,,,,,,,,,,,,Initial/Repeat/Howl.wav,,,1,1,0.75901,0,97,97,97,1,,
,,,,,,,,,,,,,2,,001,2021-01-22_16h51.36.177,GuessTheSound,2020.2.10,Win32,60,,,,,,,,,,,,,,,Goat_C.wav,,,2,1,0.73568,0,98,98,98,1,,
,,,,,,,,,,,,,1,,001,2021-01-22_16h51.36.177,GuessTheSound,2020.2.10,Win32,60,,,,,,,,,,,,,,,Initial/NoRepeat/Faucet_A.wav,,,1,1,0.578085,0,99,99,99,1,,
,,,,,,,,,,,,,2,,001,2021-01-22_16h51.36.177,GuessTheSound,2020.2.10,Win32,60,,,,,,,,,,,,,,,Whistle_B.wav,,,2,1,1.00687,0,100,100,100,1,,
,,,,,,,,,,,,,3,,001,2021-01-22_16h51.36.177,GuessTheSound,2020.2.10,Win32,60,,,,,,,,,,,,,,,Initial/NoRepeat/Footsteps_B.wav,,,3,1,0.952545,0,101,101,101,1,,
,,,,,,,,,,,,,2,,001,2021-01-22_16h51.36.177,GuessTheSound,2020.2.10,Win32,60,,,,,,,,,,,,,,,Growl_C.wav,,,2,1,1.051655,0,102,102,102,1,,
,,,,,,,,,,,,,2,,001,2021-01-22_16h51.36.177,GuessTheSound,2020.2.10,Win32,60,,,,,,,,,,,,,,,Phone_D.wav,,,2,1,1.95675,0,103,103,103,1,,
,,,,,,,,,,,,,1,,001,2021-01-22_16h51.36.177,GuessTheSound,2020.2.10,Win32,60,,,,,,,,,,,,,,,Test/Foils/Bullfrog.wav,,,1,1,0.40247,0,104,104,104,1,,
,,,,,,,,,,,,,1,,001,2021-01-22_16h51.36.177,GuessTheSound,2020.2.10,Win32,60,,,,,,,,,,,,,,,Initial/Repeat/Howl.wav,,,1,1,0.679675,0,105,105,105,1,,
,,,,,,,,,,,,,1,,001,2021-01-22_16h51.36.177,GuessTheSound,2020.2.10,Win32,60,,,,,,,,,,,,,,,Initial/NoRepeat/Thunder_A.wav,,,1,1,1.32332,0,106,106,106,1,,
,,,,,,,,,,,,,2,,001,2021-01-22_16h51.36.177,GuessTheSound,2020.2.10,Win32,60,,,,,,,,,,,,,,,Whistle_C.wav,,,2,1,1.19498,0,107,107,107,1,,
,,,,,,,,,,,,,1,,001,2021-01-22_16h51.36.177,GuessTheSound,2020.2.10,Win32,60,,,,,,,,,,,,,,,Initial/NoRepeat/Faucet_A.wav,,,1,1,0.92086,0,108,108,108,1,,
,,,,,,,,,,,,,,,001,2021-01-22_16h51.36.177,GuessTheSound,2020.2.10,Win32,60,,,,,,,,,,,,,,,,,,,,,,,,,,space,3.982435
