VolumeContinueKey.keys,VolumeContinueKey.rt,HeadphoneContinueKey.keys,HeadphoneContinueKey.rt,CheckResp.keys,CheckResp.corr,CheckResp.rt,trials_2.thisRepN,trials_2.thisTrialN,trials_2.thisN,trials_2.thisIndex,trials_2.ran,File,Correct,participant,session,date,expName,psychopyVersion,OS,frameRate,ContinueResp.keys,ContinueResp.rt,Wel2ContinueKey.keys,Wel2ContinueKey.rt,WelcomeContinueKey2.keys,WelcomeContinueKey2.rt,Practice_resp.keys,Practice_resp.corr,Practice_resp.rt,PracticeTrials.thisRepN,PracticeTrials.thisTrialN,PracticeTrials.thisN,PracticeTrials.thisIndex,PracticeTrials.ran,SoundFile,Correct2,Type,StartTast.keys,StartTast.rt,MSTResp.keys,MSTResp.corr,MSTResp.rt,trials.thisRepN,trials.thisTrialN,trials.thisN,trials.thisIndex,trials.ran,ExitKey.keys,ExitKey.rt
space,6.437325,space,7.7128,3,1,1.438355,0,0,0,4,1,Headphone/t3_1.wav,3,5ef4cc7c6095e30d2cb5087d,001,2021-02-22_19h23.57.110,GuessTheSound,2020.2.10,Win32,60,,,,,,,,,,,,,,,,,,,,,,,,,,,,,
,,,,2,1,0.43308,0,1,1,2,1,Headphone/t2_1.wav,2,5ef4cc7c6095e30d2cb5087d,001,2021-02-22_19h23.57.110,GuessTheSound,2020.2.10,Win32,60,,,,,,,,,,,,,,,,,,,,,,,,,,,,,
,,,,1,1,0.275595,0,2,2,0,1,Headphone/t1_1.wav,1,5ef4cc7c6095e30d2cb5087d,001,2021-02-22_19h23.57.110,GuessTheSound,2020.2.10,Win32,60,,,,,,,,,,,,,,,,,,,,,,,,,,,,,
,,,,2,1,0.291135,0,3,3,3,1,Headphone/t2_2.wav,2,5ef4cc7c6095e30d2cb5087d,001,2021-02-22_19h23.57.110,GuessTheSound,2020.2.10,Win32,60,,,,,,,,,,,,,,,,,,,,,,,,,,,,,
,,,,3,1,0.240675,0,4,4,5,1,Headphone/t3_2.wav,3,5ef4cc7c6095e30d2cb5087d,001,2021-02-22_19h23.57.110,GuessTheSound,2020.2.10,Win32,60,,,,,,,,,,,,,,,,,,,,,,,,,,,,,
,,,,1,1,0.30094,0,5,5,1,1,Headphone/t1_2.wav,1,5ef4cc7c6095e30d2cb5087d,001,2021-02-22_19h23.57.110,GuessTheSound,2020.2.10,Win32,60,,,,,,,,,,,,,,,,,,,,,,,,,,,,,
,,,,,,,,,,,,,2,5ef4cc7c6095e30d2cb5087d,001,2021-02-22_19h23.57.110,GuessTheSound,2020.2.10,Win32,60,space,177.65803,space,5.624875,space,2.88222,1,0,2.83157,0,0,0,0,1,Practice/Seagull_A.wav,3,NEW,,,,,,,,,,,,
,,,,,,,,,,,,,2,5ef4cc7c6095e30d2cb5087d,001,2021-02-22_19h23.57.110,GuessTheSound,2020.2.10,Win32,60,,,,,,,1,0,3.46011,0,1,1,1,1,Practice/Skid_B.wav,3,NEW,,,,,,,,,,,,
,,,,,,,,,,,,,1,5ef4cc7c6095e30d2cb5087d,001,2021-02-22_19h23.57.110,GuessTheSound,2020.2.10,Win32,60,,,,,,,1,1,10.07293,0,2,2,2,1,Practice/Seagull_A.wav,1,OLD,,,,,,,,,,,,
,,,,,,,,,,,,,2,5ef4cc7c6095e30d2cb5087d,001,2021-02-22_19h23.57.110,GuessTheSound,2020.2.10,Win32,60,,,,,,,3,1,2.31622,0,3,3,3,1,Practice/Gargle_A.wav,3,NEW,,,,,,,,,,,,
,,,,,,,,,,,,,2,5ef4cc7c6095e30d2cb5087d,001,2021-02-22_19h23.57.110,GuessTheSound,2020.2.10,Win32,60,,,,,,,2,1,1.647,0,4,4,4,1,Practice/Gargle_B.wav,2,SIMILAR,,,,,,,,,,,,
,,,,,,,,,,,,,2,5ef4cc7c6095e30d2cb5087d,001,2021-02-22_19h23.57.110,GuessTheSound,2020.2.10,Win32,60,,,,,,,,,,,,,,,Elephant_C.wav,3,NEW,space,282.59242,3,1,10.21573,0,0,0,0,1,,
,,,,,,,,,,,,,2,5ef4cc7c6095e30d2cb5087d,001,2021-02-22_19h23.57.110,GuessTheSound,2020.2.10,Win32,60,,,,,,,,,,,,,,,Initial/NoRepeat/Thunder_A.wav,3,NEW,,,3,1,0.636205,0,1,1,1,1,,
,,,,,,,,,,,,,2,5ef4cc7c6095e30d2cb5087d,001,2021-02-22_19h23.57.110,GuessTheSound,2020.2.10,Win32,60,,,,,,,,,,,,,,,Test/Lures/Chime_B.wav,3,NEW,,,3,1,2.77071,0,2,2,2,1,,
,,,,,,,,,,,,,2,5ef4cc7c6095e30d2cb5087d,001,2021-02-22_19h23.57.110,GuessTheSound,2020.2.10,Win32,60,,,,,,,,,,,,,,,Initial/NoRepeat/Toilet_B.wav,3,NEW,,,3,1,1.014045,0,3,3,3,1,,
,,,,,,,,,,,,,2,5ef4cc7c6095e30d2cb5087d,001,2021-02-22_19h23.57.110,GuessTheSound,2020.2.10,Win32,60,,,,,,,,,,,,,,,Test/Foils/Typing.wav,3,NEW,,,3,1,1.58069,0,4,4,4,1,,
,,,,,,,,,,,,,2,5ef4cc7c6095e30d2cb5087d,001,2021-02-22_19h23.57.110,GuessTheSound,2020.2.10,Win32,60,,,,,,,,,,,,,,,Initial/Repeat/Pour.wav,3,NEW,,,2,0,1.07861,0,5,5,5,1,,
,,,,,,,,,,,,,2,5ef4cc7c6095e30d2cb5087d,001,2021-02-22_19h23.57.110,GuessTheSound,2020.2.10,Win32,60,,,,,,,,,,,,,,,Initial/NoRepeat/Sleighbells_B.wav,3,NEW,,,3,1,0.551735,0,6,6,6,1,,
,,,,,,,,,,,,,2,5ef4cc7c6095e30d2cb5087d,001,2021-02-22_19h23.57.110,GuessTheSound,2020.2.10,Win32,60,,,,,,,,,,,,,,,Initial/Repeat/Buzz.wav,3,NEW,,,3,1,0.51972,0,7,7,7,1,,
,,,,,,,,,,,,,2,5ef4cc7c6095e30d2cb5087d,001,2021-02-22_19h23.57.110,GuessTheSound,2020.2.10,Win32,60,,,,,,,,,,,,,,,Baby_F.wav,3,NEW,,,3,1,1.091945,0,8,8,8,1,,
,,,,,,,,,,,,,1,5ef4cc7c6095e30d2cb5087d,001,2021-02-22_19h23.57.110,GuessTheSound,2020.2.10,Win32,60,,,,,,,,,,,,,,,Initial/NoRepeat/Thunder_A.wav,1,OLD,,,3,0,0.467745,0,9,9,9,1,,
,,,,,,,,,,,,,2,5ef4cc7c6095e30d2cb5087d,001,2021-02-22_19h23.57.110,GuessTheSound,2020.2.10,Win32,60,,,,,,,,,,,,,,,Initial/NoRepeat/Mosquito_B.wav,3,NEW,,,3,1,6.26881,0,10,10,10,1,,
,,,,,,,,,,,,,2,5ef4cc7c6095e30d2cb5087d,001,2021-02-22_19h23.57.110,GuessTheSound,2020.2.10,Win32,60,,,,,,,,,,,,,,,Test/Foils/DialTone.wav,3,NEW,,,3,1,3.982515,0,11,11,11,1,,
,,,,,,,,,,,,,2,5ef4cc7c6095e30d2cb5087d,001,2021-02-22_19h23.57.110,GuessTheSound,2020.2.10,Win32,60,,,,,,,,,,,,,,,Elephant_D.wav,2,SIMILAR,,,1,0,0.461115,0,12,12,12,1,,
,,,,,,,,,,,,,2,5ef4cc7c6095e30d2cb5087d,001,2021-02-22_19h23.57.110,GuessTheSound,2020.2.10,Win32,60,,,,,,,,,,,,,,,Initial/Doubled/Writing_A.wav,3,NEW,,,3,1,0.386565,0,13,13,13,1,,
,,,,,,,,,,,,,2,5ef4cc7c6095e30d2cb5087d,001,2021-02-22_19h23.57.110,GuessTheSound,2020.2.10,Win32,60,,,,,,,,,,,,,,,Initial/NoRepeat/Faucet_A.wav,3,NEW,,,2,0,0.388995,0,14,14,14,1,,
,,,,,,,,,,,,,1,5ef4cc7c6095e30d2cb5087d,001,2021-02-22_19h23.57.110,GuessTheSound,2020.2.10,Win32,60,,,,,,,,,,,,,,,Test/Foils/Typing.wav,1,OLD,,,1,1,0.3905,0,15,15,15,1,,
,,,,,,,,,,,,,1,5ef4cc7c6095e30d2cb5087d,001,2021-02-22_19h23.57.110,GuessTheSound,2020.2.10,Win32,60,,,,,,,,,,,,,,,Initial/NoRepeat/Sleighbells_B.wav,1,OLD,,,1,1,0.44943,0,16,16,16,1,,
,,,,,,,,,,,,,2,5ef4cc7c6095e30d2cb5087d,001,2021-02-22_19h23.57.110,GuessTheSound,2020.2.10,Win32,60,,,,,,,,,,,,,,,Test/Foils/Wind_B.wav,3,NEW,,,2,0,0.4077,0,17,17,17,1,,
,,,,,,,,,,,,,1,5ef4cc7c6095e30d2cb5087d,001,2021-02-22_19h23.57.110,GuessTheSound,2020.2.10,Win32,60,,,,,,,,,,,,,,,Initial/NoRepeat/Toilet_B.wav,1,OLD,,,1,1,0.31118,0,18,18,18,1,,
,,,,,,,,,,,,,2,5ef4cc7c6095e30d2cb5087d,001,2021-02-22_19h23.57.110,GuessTheSound,2020.2.10,Win32,60,,,,,,,,,,,,,,,Pour_C.wav,2,SIMILAR,,,2,1,1.90261,0,19,19,19,1,,
,,,,,,,,,,,,,2,5ef4cc7c6095e30d2cb5087d,001,2021-02-22_19h23.57.110,GuessTheSound,2020.2.10,Win32,60,,,,,,,,,,,,,,,Initial/Doubled/Chime_A.wav,2,SIMILAR,,,2,1,1.13433,0,20,20,20,1,,
,,,,,,,,,,,,,1,5ef4cc7c6095e30d2cb5087d,001,2021-02-22_19h23.57.110,GuessTheSound,2020.2.10,Win32,60,,,,,,,,,,,,,,,Initial/Repeat/Buzz.wav,1,OLD,,,1,1,0.42234,0,21,21,21,1,,
,,,,,,,,,,,,,2,5ef4cc7c6095e30d2cb5087d,001,2021-02-22_19h23.57.110,GuessTheSound,2020.2.10,Win32,60,,,,,,,,,,,,,,,Writing_C.wav,2,SIMILAR,,,2,1,0.434,0,22,22,22,1,,
,,,,,,,,,,,,,1,5ef4cc7c6095e30d2cb5087d,001,2021-02-22_19h23.57.110,GuessTheSound,2020.2.10,Win32,60,,,,,,,,,,,,,,,Initial/NoRepeat/Mosquito_B.wav,1,OLD,,,1,1,0.386365,0,23,23,23,1,,
,,,,,,,,,,,,,2,5ef4cc7c6095e30d2cb5087d,001,2021-02-22_19h23.57.110,GuessTheSound,2020.2.10,Win32,60,,,,,,,,,,,,,,,Initial/Doubled/Cough_A.wav,3,NEW,,,3,1,0.559665,0,24,24,24,1,,
,,,,,,,,,,,,,1,5ef4cc7c6095e30d2cb5087d,001,2021-02-22_19h23.57.110,GuessTheSound,2020.2.10,Win32,60,,,,,,,,,,,,,,,Test/Foils/DialTone.wav,1,OLD,,,2,0,0.45269,0,25,25,25,1,,
,,,,,,,,,,,,,2,5ef4cc7c6095e30d2cb5087d,001,2021-02-22_19h23.57.110,GuessTheSound,2020.2.10,Win32,60,,,,,,,,,,,,,,,Initial/NoRepeat/Puff_A.wav,3,NEW,,,3,1,0.352725,0,26,26,26,1,,
,,,,,,,,,,,,,2,5ef4cc7c6095e30d2cb5087d,001,2021-02-22_19h23.57.110,GuessTheSound,2020.2.10,Win32,60,,,,,,,,,,,,,,,Test/Foils/Heartbeat.wav,3,NEW,,,3,1,0.46728,0,27,27,27,1,,
,,,,,,,,,,,,,2,5ef4cc7c6095e30d2cb5087d,001,2021-02-22_19h23.57.110,GuessTheSound,2020.2.10,Win32,60,,,,,,,,,,,,,,,Initial/Repeat/IceDrop.wav,3,NEW,,,3,1,0.403285,0,28,28,28,1,,
,,,,,,,,,,,,,2,5ef4cc7c6095e30d2cb5087d,001,2021-02-22_19h23.57.110,GuessTheSound,2020.2.10,Win32,60,,,,,,,,,,,,,,,Bird_D.wav,3,NEW,,,3,1,1.5239,0,29,29,29,1,,
,,,,,,,,,,,,,2,5ef4cc7c6095e30d2cb5087d,001,2021-02-22_19h23.57.110,GuessTheSound,2020.2.10,Win32,60,,,,,,,,,,,,,,,Baby_E.wav,2,SIMILAR,,,2,1,0.40257,0,30,30,30,1,,
,,,,,,,,,,,,,2,5ef4cc7c6095e30d2cb5087d,001,2021-02-22_19h23.57.110,GuessTheSound,2020.2.10,Win32,60,,,,,,,,,,,,,,,Faucet_B.wav,2,SIMILAR,,,3,0,1.785595,0,31,31,31,1,,
,,,,,,,,,,,,,2,5ef4cc7c6095e30d2cb5087d,001,2021-02-22_19h23.57.110,GuessTheSound,2020.2.10,Win32,60,,,,,,,,,,,,,,,Duck_A.wav,3,NEW,,,3,1,0.372975,0,32,32,32,1,,
,,,,,,,,,,,,,2,5ef4cc7c6095e30d2cb5087d,001,2021-02-22_19h23.57.110,GuessTheSound,2020.2.10,Win32,60,,,,,,,,,,,,,,,Initial/Doubled/Laugh_A.wav,3,NEW,,,3,1,0.301585,0,33,33,33,1,,
,,,,,,,,,,,,,1,5ef4cc7c6095e30d2cb5087d,001,2021-02-22_19h23.57.110,GuessTheSound,2020.2.10,Win32,60,,,,,,,,,,,,,,,Test/Foils/Wind_B.wav,1,OLD,,,2,0,0.037165,0,34,34,34,1,,
,,,,,,,,,,,,,2,5ef4cc7c6095e30d2cb5087d,001,2021-02-22_19h23.57.110,GuessTheSound,2020.2.10,Win32,60,,,,,,,,,,,,,,,Initial/Doubled/Chicken_A.wav,3,NEW,,,3,1,0.353525,0,35,35,35,1,,
,,,,,,,,,,,,,2,5ef4cc7c6095e30d2cb5087d,001,2021-02-22_19h23.57.110,GuessTheSound,2020.2.10,Win32,60,,,,,,,,,,,,,,,Test/Lures/Guitar_B.wav,3,NEW,,,3,1,0.275355,0,36,36,36,1,,
,,,,,,,,,,,,,2,5ef4cc7c6095e30d2cb5087d,001,2021-02-22_19h23.57.110,GuessTheSound,2020.2.10,Win32,60,,,,,,,,,,,,,,,Initial/Repeat/Cello.wav,3,NEW,,,3,1,0.42585,0,37,37,37,1,,
,,,,,,,,,,,,,1,5ef4cc7c6095e30d2cb5087d,001,2021-02-22_19h23.57.110,GuessTheSound,2020.2.10,Win32,60,,,,,,,,,,,,,,,Test/Foils/Heartbeat.wav,1,OLD,,,2,0,0.643105,0,38,38,38,1,,
,,,,,,,,,,,,,2,5ef4cc7c6095e30d2cb5087d,001,2021-02-22_19h23.57.110,GuessTheSound,2020.2.10,Win32,60,,,,,,,,,,,,,,,Initial/Repeat/Airplane_B.wav,3,NEW,,,3,1,0.32574,0,39,39,39,1,,
,,,,,,,,,,,,,2,5ef4cc7c6095e30d2cb5087d,001,2021-02-22_19h23.57.110,GuessTheSound,2020.2.10,Win32,60,,,,,,,,,,,,,,,Cough_E.wav,2,SIMILAR,,,2,1,1.00204,0,40,40,40,1,,
,,,,,,,,,,,,,2,5ef4cc7c6095e30d2cb5087d,001,2021-02-22_19h23.57.110,GuessTheSound,2020.2.10,Win32,60,,,,,,,,,,,,,,,Initial/Repeat/Trumpet_B.wav,3,NEW,,,3,1,0.46687,0,41,41,41,1,,
,,,,,,,,,,,,,1,5ef4cc7c6095e30d2cb5087d,001,2021-02-22_19h23.57.110,GuessTheSound,2020.2.10,Win32,60,,,,,,,,,,,,,,,Initial/Repeat/IceDrop.wav,1,OLD,,,1,1,0.390775,0,42,42,42,1,,
,,,,,,,,,,,,,2,5ef4cc7c6095e30d2cb5087d,001,2021-02-22_19h23.57.110,GuessTheSound,2020.2.10,Win32,60,,,,,,,,,,,,,,,Initial/Repeat/Sneeze_B.wav,3,NEW,,,3,1,0.435395,0,43,43,43,1,,
,,,,,,,,,,,,,1,5ef4cc7c6095e30d2cb5087d,001,2021-02-22_19h23.57.110,GuessTheSound,2020.2.10,Win32,60,,,,,,,,,,,,,,,Initial/NoRepeat/Puff_A.wav,1,OLD,,,1,1,0.301935,0,44,44,44,1,,
,,,,,,,,,,,,,2,5ef4cc7c6095e30d2cb5087d,001,2021-02-22_19h23.57.110,GuessTheSound,2020.2.10,Win32,60,,,,,,,,,,,,,,,Chick_A.wav,2,SIMILAR,,,2,1,0.408835,0,45,45,45,1,,
,,,,,,,,,,,,,2,5ef4cc7c6095e30d2cb5087d,001,2021-02-22_19h23.57.110,GuessTheSound,2020.2.10,Win32,60,,,,,,,,,,,,,,,Snore_D.wav,3,NEW,,,3,1,0.54304,0,46,46,46,1,,
,,,,,,,,,,,,,1,5ef4cc7c6095e30d2cb5087d,001,2021-02-22_19h23.57.110,GuessTheSound,2020.2.10,Win32,60,,,,,,,,,,,,,,,Test/Lures/Guitar_B.wav,1,OLD,,,1,1,0.38989,0,47,47,47,1,,
,,,,,,,,,,,,,2,5ef4cc7c6095e30d2cb5087d,001,2021-02-22_19h23.57.110,GuessTheSound,2020.2.10,Win32,60,,,,,,,,,,,,,,,Initial/Doubled/Cat_A.wav,3,NEW,,,3,1,0.558205,0,48,48,48,1,,
,,,,,,,,,,,,,2,5ef4cc7c6095e30d2cb5087d,001,2021-02-22_19h23.57.110,GuessTheSound,2020.2.10,Win32,60,,,,,,,,,,,,,,,Initial/Repeat/Whistle_A.wav,3,NEW,,,3,1,0.98291,0,49,49,49,1,,
,,,,,,,,,,,,,2,5ef4cc7c6095e30d2cb5087d,001,2021-02-22_19h23.57.110,GuessTheSound,2020.2.10,Win32,60,,,,,,,,,,,,,,,Duck_B.wav,2,SIMILAR,,,1,0,1.66726,0,50,50,50,1,,
,,,,,,,,,,,,,2,5ef4cc7c6095e30d2cb5087d,001,2021-02-22_19h23.57.110,GuessTheSound,2020.2.10,Win32,60,,,,,,,,,,,,,,,Laugh_D.wav,2,SIMILAR,,,3,0,0.355645,0,51,51,51,1,,
,,,,,,,,,,,,,1,5ef4cc7c6095e30d2cb5087d,001,2021-02-22_19h23.57.110,GuessTheSound,2020.2.10,Win32,60,,,,,,,,,,,,,,,Initial/Doubled/Chicken_A.wav,1,OLD,,,1,1,0.50366,0,52,52,52,1,,
,,,,,,,,,,,,,1,5ef4cc7c6095e30d2cb5087d,001,2021-02-22_19h23.57.110,GuessTheSound,2020.2.10,Win32,60,,,,,,,,,,,,,,,Initial/Repeat/Cello.wav,1,OLD,,,1,1,0.93932,0,53,53,53,1,,
,,,,,,,,,,,,,2,5ef4cc7c6095e30d2cb5087d,001,2021-02-22_19h23.57.110,GuessTheSound,2020.2.10,Win32,60,,,,,,,,,,,,,,,Test/Foils/Slurp.wav,3,NEW,,,3,1,2.144735,0,54,54,54,1,,
,,,,,,,,,,,,,2,5ef4cc7c6095e30d2cb5087d,001,2021-02-22_19h23.57.110,GuessTheSound,2020.2.10,Win32,60,,,,,,,,,,,,,,,Initial/Doubled/Chomp_A.wav,3,NEW,,,3,1,0.700525,0,55,55,55,1,,
,,,,,,,,,,,,,1,5ef4cc7c6095e30d2cb5087d,001,2021-02-22_19h23.57.110,GuessTheSound,2020.2.10,Win32,60,,,,,,,,,,,,,,,Initial/Repeat/Airplane_B.wav,1,OLD,,,2,0,0.367765,0,56,56,56,1,,
,,,,,,,,,,,,,2,5ef4cc7c6095e30d2cb5087d,001,2021-02-22_19h23.57.110,GuessTheSound,2020.2.10,Win32,60,,,,,,,,,,,,,,,Initial/Repeat/ManWhistle.wav,3,NEW,,,3,1,0.57265,0,57,57,57,1,,
,,,,,,,,,,,,,1,5ef4cc7c6095e30d2cb5087d,001,2021-02-22_19h23.57.110,GuessTheSound,2020.2.10,Win32,60,,,,,,,,,,,,,,,Initial/Repeat/Trumpet_B.wav,1,OLD,,,1,1,0.93692,0,58,58,58,1,,
,,,,,,,,,,,,,2,5ef4cc7c6095e30d2cb5087d,001,2021-02-22_19h23.57.110,GuessTheSound,2020.2.10,Win32,60,,,,,,,,,,,,,,,Initial/Repeat/Cup.wav,3,NEW,,,3,1,1.31094,0,59,59,59,1,,
,,,,,,,,,,,,,2,5ef4cc7c6095e30d2cb5087d,001,2021-02-22_19h23.57.110,GuessTheSound,2020.2.10,Win32,60,,,,,,,,,,,,,,,Snore_C.wav,2,SIMILAR,,,2,1,0.48777,0,60,60,60,1,,
,,,,,,,,,,,,,2,5ef4cc7c6095e30d2cb5087d,001,2021-02-22_19h23.57.110,GuessTheSound,2020.2.10,Win32,60,,,,,,,,,,,,,,,Test/Foils/Airhorn.wav,3,NEW,,,3,1,0.45105,0,61,61,61,1,,
,,,,,,,,,,,,,2,5ef4cc7c6095e30d2cb5087d,001,2021-02-22_19h23.57.110,GuessTheSound,2020.2.10,Win32,60,,,,,,,,,,,,,,,Whistle_C.wav,2,SIMILAR,,,3,0,0.38651,0,62,62,62,1,,
,,,,,,,,,,,,,2,5ef4cc7c6095e30d2cb5087d,001,2021-02-22_19h23.57.110,GuessTheSound,2020.2.10,Win32,60,,,,,,,,,,,,,,,Phone_D.wav,3,NEW,,,3,1,1.351485,0,63,63,63,1,,
,,,,,,,,,,,,,1,5ef4cc7c6095e30d2cb5087d,001,2021-02-22_19h23.57.110,GuessTheSound,2020.2.10,Win32,60,,,,,,,,,,,,,,,Initial/Repeat/Sneeze_B.wav,1,OLD,,,1,1,1.67783,0,64,64,64,1,,
,,,,,,,,,,,,,1,5ef4cc7c6095e30d2cb5087d,001,2021-02-22_19h23.57.110,GuessTheSound,2020.2.10,Win32,60,,,,,,,,,,,,,,,Initial/Doubled/Cat_A.wav,1,OLD,,,2,0,0.40033,0,65,65,65,1,,
,,,,,,,,,,,,,2,5ef4cc7c6095e30d2cb5087d,001,2021-02-22_19h23.57.110,GuessTheSound,2020.2.10,Win32,60,,,,,,,,,,,,,,,Initial/Repeat/Bagpipe.wav,3,NEW,,,3,1,0.438355,0,66,66,66,1,,
,,,,,,,,,,,,,1,5ef4cc7c6095e30d2cb5087d,001,2021-02-22_19h23.57.110,GuessTheSound,2020.2.10,Win32,60,,,,,,,,,,,,,,,Test/Foils/Slurp.wav,1,OLD,,,2,0,0.359355,0,67,67,67,1,,
,,,,,,,,,,,,,2,5ef4cc7c6095e30d2cb5087d,001,2021-02-22_19h23.57.110,GuessTheSound,2020.2.10,Win32,60,,,,,,,,,,,,,,,Test/Foils/Bowlingpins.wav,3,NEW,,,3,1,1.0498,0,68,68,68,1,,
,,,,,,,,,,,,,2,5ef4cc7c6095e30d2cb5087d,001,2021-02-22_19h23.57.110,GuessTheSound,2020.2.10,Win32,60,,,,,,,,,,,,,,,Initial/NoRepeat/Cow.wav,3,NEW,,,3,1,0.67927,0,69,69,69,1,,
,,,,,,,,,,,,,2,5ef4cc7c6095e30d2cb5087d,001,2021-02-22_19h23.57.110,GuessTheSound,2020.2.10,Win32,60,,,,,,,,,,,,,,,Initial/Doubled/Siren_A.wav,3,NEW,,,3,1,4.168885,0,70,70,70,1,,
,,,,,,,,,,,,,1,5ef4cc7c6095e30d2cb5087d,001,2021-02-22_19h23.57.110,GuessTheSound,2020.2.10,Win32,60,,,,,,,,,,,,,,,Initial/Repeat/ManWhistle.wav,1,OLD,,,2,0,4.36536,0,71,71,71,1,,
,,,,,,,,,,,,,2,5ef4cc7c6095e30d2cb5087d,001,2021-02-22_19h23.57.110,GuessTheSound,2020.2.10,Win32,60,,,,,,,,,,,,,,,Initial/Repeat/Crow_B.wav,3,NEW,,,3,1,1.923905,0,72,72,72,1,,
,,,,,,,,,,,,,2,5ef4cc7c6095e30d2cb5087d,001,2021-02-22_19h23.57.110,GuessTheSound,2020.2.10,Win32,60,,,,,,,,,,,,,,,Chomp_E.wav,2,SIMILAR,,,3,0,2.11638,0,73,73,73,1,,
,,,,,,,,,,,,,1,5ef4cc7c6095e30d2cb5087d,001,2021-02-22_19h23.57.110,GuessTheSound,2020.2.10,Win32,60,,,,,,,,,,,,,,,Initial/Repeat/Cup.wav,1,OLD,,,3,0,2.05752,0,74,74,74,1,,
,,,,,,,,,,,,,2,5ef4cc7c6095e30d2cb5087d,001,2021-02-22_19h23.57.110,GuessTheSound,2020.2.10,Win32,60,,,,,,,,,,,,,,,Test/Foils/Bullfrog.wav,3,NEW,,,2,0,0.61613,0,75,75,75,1,,
,,,,,,,,,,,,,2,5ef4cc7c6095e30d2cb5087d,001,2021-02-22_19h23.57.110,GuessTheSound,2020.2.10,Win32,60,,,,,,,,,,,,,,,Initial/Repeat/Phone_A.wav,2,SIMILAR,,,3,0,3.638705,0,76,76,76,1,,
,,,,,,,,,,,,,1,5ef4cc7c6095e30d2cb5087d,001,2021-02-22_19h23.57.110,GuessTheSound,2020.2.10,Win32,60,,,,,,,,,,,,,,,Initial/Repeat/Bagpipe.wav,1,OLD,,,1,1,0.407415,0,77,77,77,1,,
,,,,,,,,,,,,,2,5ef4cc7c6095e30d2cb5087d,001,2021-02-22_19h23.57.110,GuessTheSound,2020.2.10,Win32,60,,,,,,,,,,,,,,,Initial/Doubled/HairDryer_A.wav,3,NEW,,,3,1,0.557645,0,78,78,78,1,,
,,,,,,,,,,,,,1,5ef4cc7c6095e30d2cb5087d,001,2021-02-22_19h23.57.110,GuessTheSound,2020.2.10,Win32,60,,,,,,,,,,,,,,,Test/Foils/Airhorn.wav,1,OLD,,,1,1,0.65826,0,79,79,79,1,,
,,,,,,,,,,,,,2,5ef4cc7c6095e30d2cb5087d,001,2021-02-22_19h23.57.110,GuessTheSound,2020.2.10,Win32,60,,,,,,,,,,,,,,,Initial/NoRepeat/Hammer_A.wav,3,NEW,,,3,1,0.89007,0,80,80,80,1,,
,,,,,,,,,,,,,2,5ef4cc7c6095e30d2cb5087d,001,2021-02-22_19h23.57.110,GuessTheSound,2020.2.10,Win32,60,,,,,,,,,,,,,,,Initial/Doubled/Cuckoo_A.wav,3,NEW,,,3,1,1.576885,0,81,81,81,1,,
,,,,,,,,,,,,,1,5ef4cc7c6095e30d2cb5087d,001,2021-02-22_19h23.57.110,GuessTheSound,2020.2.10,Win32,60,,,,,,,,,,,,,,,Initial/NoRepeat/Cow.wav,1,OLD,,,2,0,1.685225,0,82,82,82,1,,
,,,,,,,,,,,,,2,5ef4cc7c6095e30d2cb5087d,001,2021-02-22_19h23.57.110,GuessTheSound,2020.2.10,Win32,60,,,,,,,,,,,,,,,Initial/NoRepeat/Footsteps_B.wav,3,NEW,,,3,1,1.24179,0,83,83,83,1,,
,,,,,,,,,,,,,2,5ef4cc7c6095e30d2cb5087d,001,2021-02-22_19h23.57.110,GuessTheSound,2020.2.10,Win32,60,,,,,,,,,,,,,,,Dog_E.wav,3,NEW,,,3,1,0.42485,0,84,84,84,1,,
,,,,,,,,,,,,,1,5ef4cc7c6095e30d2cb5087d,001,2021-02-22_19h23.57.110,GuessTheSound,2020.2.10,Win32,60,,,,,,,,,,,,,,,Test/Foils/Bowlingpins.wav,1,OLD,,,2,0,0.216715,0,85,85,85,1,,
,,,,,,,,,,,,,2,5ef4cc7c6095e30d2cb5087d,001,2021-02-22_19h23.57.110,GuessTheSound,2020.2.10,Win32,60,,,,,,,,,,,,,,,Piano_D.wav,3,NEW,,,3,1,0.323975,0,86,86,86,1,,
,,,,,,,,,,,,,2,5ef4cc7c6095e30d2cb5087d,001,2021-02-22_19h23.57.110,GuessTheSound,2020.2.10,Win32,60,,,,,,,,,,,,,,,Initial/NoRepeat/Fireworks.wav,3,NEW,,,3,1,0.13824,0,87,87,87,1,,
,,,,,,,,,,,,,1,5ef4cc7c6095e30d2cb5087d,001,2021-02-22_19h23.57.110,GuessTheSound,2020.2.10,Win32,60,,,,,,,,,,,,,,,Test/Foils/Bullfrog.wav,1,OLD,,,1,1,1.38334,0,88,88,88,1,,
,,,,,,,,,,,,,2,5ef4cc7c6095e30d2cb5087d,001,2021-02-22_19h23.57.110,GuessTheSound,2020.2.10,Win32,60,,,,,,,,,,,,,,,Siren_B.wav,2,SIMILAR,,,2,1,2.908995,0,89,89,89,1,,
,,,,,,,,,,,,,2,5ef4cc7c6095e30d2cb5087d,001,2021-02-22_19h23.57.110,GuessTheSound,2020.2.10,Win32,60,,,,,,,,,,,,,,,Crow_A.wav,2,SIMILAR,,,1,0,1.741355,0,90,90,90,1,,
,,,,,,,,,,,,,2,5ef4cc7c6095e30d2cb5087d,001,2021-02-22_19h23.57.110,GuessTheSound,2020.2.10,Win32,60,,,,,,,,,,,,,,,Goat_D.wav,3,NEW,,,3,1,4.9647,0,91,91,91,1,,
,,,,,,,,,,,,,1,5ef4cc7c6095e30d2cb5087d,001,2021-02-22_19h23.57.110,GuessTheSound,2020.2.10,Win32,60,,,,,,,,,,,,,,,Initial/Doubled/HairDryer_A.wav,1,OLD,,,1,1,1.07884,0,92,92,92,1,,
,,,,,,,,,,,,,1,5ef4cc7c6095e30d2cb5087d,001,2021-02-22_19h23.57.110,GuessTheSound,2020.2.10,Win32,60,,,,,,,,,,,,,,,Initial/Doubled/Cuckoo_A.wav,1,OLD,,,1,1,1.08561,0,93,93,93,1,,
,,,,,,,,,,,,,2,5ef4cc7c6095e30d2cb5087d,001,2021-02-22_19h23.57.110,GuessTheSound,2020.2.10,Win32,60,,,,,,,,,,,,,,,Coin_D.wav,3,NEW,,,3,1,0.80748,0,94,94,94,1,,
,,,,,,,,,,,,,2,5ef4cc7c6095e30d2cb5087d,001,2021-02-22_19h23.57.110,GuessTheSound,2020.2.10,Win32,60,,,,,,,,,,,,,,,Initial/Repeat/Howl.wav,3,NEW,,,3,1,2.277735,0,95,95,95,1,,
,,,,,,,,,,,,,1,5ef4cc7c6095e30d2cb5087d,001,2021-02-22_19h23.57.110,GuessTheSound,2020.2.10,Win32,60,,,,,,,,,,,,,,,Initial/NoRepeat/Hammer_A.wav,1,OLD,,,2,0,1.283175,0,96,96,96,1,,
,,,,,,,,,,,,,2,5ef4cc7c6095e30d2cb5087d,001,2021-02-22_19h23.57.110,GuessTheSound,2020.2.10,Win32,60,,,,,,,,,,,,,,,Initial/NoRepeat/Helicopter_A.wav,3,NEW,,,2,0,0.26062,0,97,97,97,1,,
,,,,,,,,,,,,,2,5ef4cc7c6095e30d2cb5087d,001,2021-02-22_19h23.57.110,GuessTheSound,2020.2.10,Win32,60,,,,,,,,,,,,,,,Initial/Doubled/Bubbles_A.wav,3,NEW,,,2,0,0.87453,0,98,98,98,1,,
,,,,,,,,,,,,,2,5ef4cc7c6095e30d2cb5087d,001,2021-02-22_19h23.57.110,GuessTheSound,2020.2.10,Win32,60,,,,,,,,,,,,,,,Footsteps_C.wav,2,SIMILAR,,,2,1,0.38594,0,99,99,99,1,,
,,,,,,,,,,,,,2,5ef4cc7c6095e30d2cb5087d,001,2021-02-22_19h23.57.110,GuessTheSound,2020.2.10,Win32,60,,,,,,,,,,,,,,,Growl_E.wav,3,NEW,,,3,1,0.91721,0,100,100,100,1,,
,,,,,,,,,,,,,2,5ef4cc7c6095e30d2cb5087d,001,2021-02-22_19h23.57.110,GuessTheSound,2020.2.10,Win32,60,,,,,,,,,,,,,,,Test/Foils/Horse.wav,3,NEW,,,3,1,0.353305,0,101,101,101,1,,
,,,,,,,,,,,,,1,5ef4cc7c6095e30d2cb5087d,001,2021-02-22_19h23.57.110,GuessTheSound,2020.2.10,Win32,60,,,,,,,,,,,,,,,Piano_D.wav,1,OLD,,,1,1,0.388005,0,102,102,102,1,,
,,,,,,,,,,,,,2,5ef4cc7c6095e30d2cb5087d,001,2021-02-22_19h23.57.110,GuessTheSound,2020.2.10,Win32,60,,,,,,,,,,,,,,,Dog_F.wav,2,SIMILAR,,,1,0,0.471545,0,103,103,103,1,,
,,,,,,,,,,,,,1,5ef4cc7c6095e30d2cb5087d,001,2021-02-22_19h23.57.110,GuessTheSound,2020.2.10,Win32,60,,,,,,,,,,,,,,,Initial/NoRepeat/Fireworks.wav,1,OLD,,,1,1,0.31138,0,104,104,104,1,,
,,,,,,,,,,,,,2,5ef4cc7c6095e30d2cb5087d,001,2021-02-22_19h23.57.110,GuessTheSound,2020.2.10,Win32,60,,,,,,,,,,,,,,,Initial/Repeat/Printer.wav,3,NEW,,,2,0,0.75565,0,105,105,105,1,,
,,,,,,,,,,,,,2,5ef4cc7c6095e30d2cb5087d,001,2021-02-22_19h23.57.110,GuessTheSound,2020.2.10,Win32,60,,,,,,,,,,,,,,,Test/Foils/Camera.wav,3,NEW,,,3,1,0.416605,0,106,106,106,1,,
,,,,,,,,,,,,,2,5ef4cc7c6095e30d2cb5087d,001,2021-02-22_19h23.57.110,GuessTheSound,2020.2.10,Win32,60,,,,,,,,,,,,,,,Clap_B.wav,3,NEW,,,2,0,0.0535,0,107,107,107,1,,
,,,,,,,,,,,,,2,5ef4cc7c6095e30d2cb5087d,001,2021-02-22_19h23.57.110,GuessTheSound,2020.2.10,Win32,60,,,,,,,,,,,,,,,Initial/Repeat/PaperRip.wav,3,NEW,,,2,0,1.042185,0,108,108,108,1,,
,,,,,,,,,,,,,2,5ef4cc7c6095e30d2cb5087d,001,2021-02-22_19h23.57.110,GuessTheSound,2020.2.10,Win32,60,,,,,,,,,,,,,,,Coin_E.wav,2,SIMILAR,,,1,0,0.60356,0,109,109,109,1,,
,,,,,,,,,,,,,2,5ef4cc7c6095e30d2cb5087d,001,2021-02-22_19h23.57.110,GuessTheSound,2020.2.10,Win32,60,,,,,,,,,,,,,,,Initial/NoRepeat/Droplet_B.wav,3,NEW,,,2,0,0.709165,0,110,110,110,1,,
,,,,,,,,,,,,,2,5ef4cc7c6095e30d2cb5087d,001,2021-02-22_19h23.57.110,GuessTheSound,2020.2.10,Win32,60,,,,,,,,,,,,,,,Test/Foils/Steam.wav,3,NEW,,,2,0,0.336885,0,111,111,111,1,,
,,,,,,,,,,,,,1,5ef4cc7c6095e30d2cb5087d,001,2021-02-22_19h23.57.110,GuessTheSound,2020.2.10,Win32,60,,,,,,,,,,,,,,,Initial/NoRepeat/Helicopter_A.wav,1,OLD,,,2,0,1.238445,0,112,112,112,1,,
,,,,,,,,,,,,,2,5ef4cc7c6095e30d2cb5087d,001,2021-02-22_19h23.57.110,GuessTheSound,2020.2.10,Win32,60,,,,,,,,,,,,,,,CarStart_F.wav,3,NEW,,,3,1,0.17415,0,113,113,113,1,,
,,,,,,,,,,,,,1,5ef4cc7c6095e30d2cb5087d,001,2021-02-22_19h23.57.110,GuessTheSound,2020.2.10,Win32,60,,,,,,,,,,,,,,,Initial/Repeat/Howl.wav,1,OLD,,,2,0,0.309665,0,114,114,114,1,,
,,,,,,,,,,,,,2,5ef4cc7c6095e30d2cb5087d,001,2021-02-22_19h23.57.110,GuessTheSound,2020.2.10,Win32,60,,,,,,,,,,,,,,,Growl_F.wav,2,SIMILAR,,,2,1,0.426705,0,115,115,115,1,,
,,,,,,,,,,,,,2,5ef4cc7c6095e30d2cb5087d,001,2021-02-22_19h23.57.110,GuessTheSound,2020.2.10,Win32,60,,,,,,,,,,,,,,,Goat_C.wav,2,SIMILAR,,,2,1,0.57083,0,116,116,116,1,,
,,,,,,,,,,,,,2,5ef4cc7c6095e30d2cb5087d,001,2021-02-22_19h23.57.110,GuessTheSound,2020.2.10,Win32,60,,,,,,,,,,,,,,,Test/Foils/Donkey.wav,3,NEW,,,3,1,0.38435,0,117,117,117,1,,
,,,,,,,,,,,,,1,5ef4cc7c6095e30d2cb5087d,001,2021-02-22_19h23.57.110,GuessTheSound,2020.2.10,Win32,60,,,,,,,,,,,,,,,Initial/Repeat/PaperRip.wav,1,OLD,,,3,0,0.572945,0,118,118,118,1,,
,,,,,,,,,,,,,2,5ef4cc7c6095e30d2cb5087d,001,2021-02-22_19h23.57.110,GuessTheSound,2020.2.10,Win32,60,,,,,,,,,,,,,,,Test/Lures/Bubbles_B.wav,2,SIMILAR,,,3,0,2.62512,0,119,119,119,1,,
,,,,,,,,,,,,,1,5ef4cc7c6095e30d2cb5087d,001,2021-02-22_19h23.57.110,GuessTheSound,2020.2.10,Win32,60,,,,,,,,,,,,,,,Test/Foils/Horse.wav,1,OLD,,,2,0,3.45842,0,120,120,120,1,,
,,,,,,,,,,,,,1,5ef4cc7c6095e30d2cb5087d,001,2021-02-22_19h23.57.110,GuessTheSound,2020.2.10,Win32,60,,,,,,,,,,,,,,,Initial/Repeat/Printer.wav,1,OLD,,,2,0,4.02667,0,121,121,121,1,,
,,,,,,,,,,,,,1,5ef4cc7c6095e30d2cb5087d,001,2021-02-22_19h23.57.110,GuessTheSound,2020.2.10,Win32,60,,,,,,,,,,,,,,,Test/Foils/Camera.wav,1,OLD,,,2,0,3.71629,0,122,122,122,1,,
,,,,,,,,,,,,,1,5ef4cc7c6095e30d2cb5087d,001,2021-02-22_19h23.57.110,GuessTheSound,2020.2.10,Win32,60,,,,,,,,,,,,,,,Initial/NoRepeat/Droplet_B.wav,1,OLD,,,2,0,0.53352,0,123,123,123,1,,
,,,,,,,,,,,,,1,5ef4cc7c6095e30d2cb5087d,001,2021-02-22_19h23.57.110,GuessTheSound,2020.2.10,Win32,60,,,,,,,,,,,,,,,Test/Foils/Steam.wav,1,OLD,,,1,1,1.153735,0,124,124,124,1,,
,,,,,,,,,,,,,2,5ef4cc7c6095e30d2cb5087d,001,2021-02-22_19h23.57.110,GuessTheSound,2020.2.10,Win32,60,,,,,,,,,,,,,,,CarStart_E.wav,2,SIMILAR,,,1,0,1.877775,0,125,125,125,1,,
,,,,,,,,,,,,,1,5ef4cc7c6095e30d2cb5087d,001,2021-02-22_19h23.57.110,GuessTheSound,2020.2.10,Win32,60,,,,,,,,,,,,,,,Test/Foils/Donkey.wav,1,OLD,,,1,1,0.433635,0,126,126,126,1,,
,,,,,,,,,,,,,2,5ef4cc7c6095e30d2cb5087d,001,2021-02-22_19h23.57.110,GuessTheSound,2020.2.10,Win32,60,,,,,,,,,,,,,,,Clap_C.wav,2,SIMILAR,,,2,1,0.034655,0,127,127,127,1,,
,,,,,,,,,,,,,,5ef4cc7c6095e30d2cb5087d,001,2021-02-22_19h23.57.110,GuessTheSound,2020.2.10,Win32,60,,,,,,,,,,,,,,,,,,,,,,,,,,,,space,31.007215
