VolumeContinueKey.keys,VolumeContinueKey.rt,HeadphoneContinueKey.keys,HeadphoneContinueKey.rt,CheckResp.keys,CheckResp.corr,CheckResp.rt,trials_2.thisRepN,trials_2.thisTrialN,trials_2.thisN,trials_2.thisIndex,trials_2.ran,File,Correct,participant,session,date,expName,psychopyVersion,OS,frameRate,ContinueResp.keys,ContinueResp.rt,Wel2ContinueKey.keys,Wel2ContinueKey.rt,WelcomeContinueKey2.keys,WelcomeContinueKey2.rt,Practice_resp.keys,Practice_resp.corr,Practice_resp.rt,PracticeTrials.thisRepN,PracticeTrials.thisTrialN,PracticeTrials.thisN,PracticeTrials.thisIndex,PracticeTrials.ran,SoundFile,Correct2,Type,StartTast.keys,StartTast.rt,MSTResp.keys,MSTResp.corr,MSTResp.rt,trials.thisRepN,trials.thisTrialN,trials.thisN,trials.thisIndex,trials.ran,ExitKey.keys,ExitKey.rt
space,5.244665,space,4.29965,3,1,6.352085,0,0,0,4,1,Headphone/t3_1.wav,3,5f18458a1facae24e6a1893c,001,2021-02-22_19h23.42.635,GuessTheSound,2020.2.10,Win32,60,,,,,,,,,,,,,,,,,,,,,,,,,,,,,
,,,,1,1,2.48372,0,1,1,1,1,Headphone/t1_2.wav,1,5f18458a1facae24e6a1893c,001,2021-02-22_19h23.42.635,GuessTheSound,2020.2.10,Win32,60,,,,,,,,,,,,,,,,,,,,,,,,,,,,,
,,,,2,0,1.829025,0,2,2,5,1,Headphone/t3_2.wav,3,5f18458a1facae24e6a1893c,001,2021-02-22_19h23.42.635,GuessTheSound,2020.2.10,Win32,60,,,,,,,,,,,,,,,,,,,,,,,,,,,,,
,,,,1,0,0.251035,0,3,3,2,1,Headphone/t2_1.wav,2,5f18458a1facae24e6a1893c,001,2021-02-22_19h23.42.635,GuessTheSound,2020.2.10,Win32,60,,,,,,,,,,,,,,,,,,,,,,,,,,,,,
,,,,1,1,1.61442,0,4,4,0,1,Headphone/t1_1.wav,1,5f18458a1facae24e6a1893c,001,2021-02-22_19h23.42.635,GuessTheSound,2020.2.10,Win32,60,,,,,,,,,,,,,,,,,,,,,,,,,,,,,
,,,,2,1,0.318825,0,5,5,3,1,Headphone/t2_2.wav,2,5f18458a1facae24e6a1893c,001,2021-02-22_19h23.42.635,GuessTheSound,2020.2.10,Win32,60,,,,,,,,,,,,,,,,,,,,,,,,,,,,,
,,,,,,,,,,,,,2,5f18458a1facae24e6a1893c,001,2021-02-22_19h23.42.635,GuessTheSound,2020.2.10,Win32,60,space,5.24945,space,11.64987,space,2.868555,3,1,1.90995,0,0,0,0,1,Practice/Seagull_A.wav,3,NEW,,,,,,,,,,,,
,,,,,,,,,,,,,2,5f18458a1facae24e6a1893c,001,2021-02-22_19h23.42.635,GuessTheSound,2020.2.10,Win32,60,,,,,,,3,1,0.766675,0,1,1,1,1,Practice/Skid_B.wav,3,NEW,,,,,,,,,,,,
,,,,,,,,,,,,,1,5f18458a1facae24e6a1893c,001,2021-02-22_19h23.42.635,GuessTheSound,2020.2.10,Win32,60,,,,,,,1,1,1.94756,0,2,2,2,1,Practice/Seagull_A.wav,1,OLD,,,,,,,,,,,,
,,,,,,,,,,,,,2,5f18458a1facae24e6a1893c,001,2021-02-22_19h23.42.635,GuessTheSound,2020.2.10,Win32,60,,,,,,,3,1,0.867125,0,3,3,3,1,Practice/Gargle_A.wav,3,NEW,,,,,,,,,,,,
,,,,,,,,,,,,,2,5f18458a1facae24e6a1893c,001,2021-02-22_19h23.42.635,GuessTheSound,2020.2.10,Win32,60,,,,,,,2,1,0.60016,0,4,4,4,1,Practice/Gargle_B.wav,2,SIMILAR,,,,,,,,,,,,
,,,,,,,,,,,,,2,5f18458a1facae24e6a1893c,001,2021-02-22_19h23.42.635,GuessTheSound,2020.2.10,Win32,60,,,,,,,,,,,,,,,Elephant_C.wav,3,NEW,space,2.716885,3,1,3.380885,0,0,0,0,1,,
,,,,,,,,,,,,,2,5f18458a1facae24e6a1893c,001,2021-02-22_19h23.42.635,GuessTheSound,2020.2.10,Win32,60,,,,,,,,,,,,,,,Initial/NoRepeat/Thunder_A.wav,3,NEW,,,3,1,0.620705,0,1,1,1,1,,
,,,,,,,,,,,,,2,5f18458a1facae24e6a1893c,001,2021-02-22_19h23.42.635,GuessTheSound,2020.2.10,Win32,60,,,,,,,,,,,,,,,Test/Lures/Chime_B.wav,3,NEW,,,3,1,0.304825,0,2,2,2,1,,
,,,,,,,,,,,,,2,5f18458a1facae24e6a1893c,001,2021-02-22_19h23.42.635,GuessTheSound,2020.2.10,Win32,60,,,,,,,,,,,,,,,Initial/NoRepeat/Toilet_B.wav,3,NEW,,,3,1,0.620435,0,3,3,3,1,,
,,,,,,,,,,,,,2,5f18458a1facae24e6a1893c,001,2021-02-22_19h23.42.635,GuessTheSound,2020.2.10,Win32,60,,,,,,,,,,,,,,,Test/Foils/Typing.wav,3,NEW,,,3,1,0.255775,0,4,4,4,1,,
,,,,,,,,,,,,,2,5f18458a1facae24e6a1893c,001,2021-02-22_19h23.42.635,GuessTheSound,2020.2.10,Win32,60,,,,,,,,,,,,,,,Initial/Repeat/Pour.wav,3,NEW,,,3,1,0.32343,0,5,5,5,1,,
,,,,,,,,,,,,,2,5f18458a1facae24e6a1893c,001,2021-02-22_19h23.42.635,GuessTheSound,2020.2.10,Win32,60,,,,,,,,,,,,,,,Initial/NoRepeat/Sleighbells_B.wav,3,NEW,,,3,1,0.40747,0,6,6,6,1,,
,,,,,,,,,,,,,2,5f18458a1facae24e6a1893c,001,2021-02-22_19h23.42.635,GuessTheSound,2020.2.10,Win32,60,,,,,,,,,,,,,,,Initial/Repeat/Buzz.wav,3,NEW,,,3,1,0.30157,0,7,7,7,1,,
,,,,,,,,,,,,,2,5f18458a1facae24e6a1893c,001,2021-02-22_19h23.42.635,GuessTheSound,2020.2.10,Win32,60,,,,,,,,,,,,,,,Baby_F.wav,3,NEW,,,3,1,0.23481,0,8,8,8,1,,
,,,,,,,,,,,,,1,5f18458a1facae24e6a1893c,001,2021-02-22_19h23.42.635,GuessTheSound,2020.2.10,Win32,60,,,,,,,,,,,,,,,Initial/NoRepeat/Thunder_A.wav,1,OLD,,,2,0,0.59121,0,9,9,9,1,,
,,,,,,,,,,,,,2,5f18458a1facae24e6a1893c,001,2021-02-22_19h23.42.635,GuessTheSound,2020.2.10,Win32,60,,,,,,,,,,,,,,,Initial/NoRepeat/Mosquito_B.wav,3,NEW,,,3,1,0.283635,0,10,10,10,1,,
,,,,,,,,,,,,,2,5f18458a1facae24e6a1893c,001,2021-02-22_19h23.42.635,GuessTheSound,2020.2.10,Win32,60,,,,,,,,,,,,,,,Test/Foils/DialTone.wav,3,NEW,,,3,1,0.4448,0,11,11,11,1,,
,,,,,,,,,,,,,2,5f18458a1facae24e6a1893c,001,2021-02-22_19h23.42.635,GuessTheSound,2020.2.10,Win32,60,,,,,,,,,,,,,,,Elephant_D.wav,2,SIMILAR,,,2,1,0.35901,0,12,12,12,1,,
,,,,,,,,,,,,,2,5f18458a1facae24e6a1893c,001,2021-02-22_19h23.42.635,GuessTheSound,2020.2.10,Win32,60,,,,,,,,,,,,,,,Initial/Doubled/Writing_A.wav,3,NEW,,,3,1,0.284545,0,13,13,13,1,,
,,,,,,,,,,,,,2,5f18458a1facae24e6a1893c,001,2021-02-22_19h23.42.635,GuessTheSound,2020.2.10,Win32,60,,,,,,,,,,,,,,,Initial/NoRepeat/Faucet_A.wav,3,NEW,,,2,0,0.13792,0,14,14,14,1,,
,,,,,,,,,,,,,1,5f18458a1facae24e6a1893c,001,2021-02-22_19h23.42.635,GuessTheSound,2020.2.10,Win32,60,,,,,,,,,,,,,,,Test/Foils/Typing.wav,1,OLD,,,1,1,1.190345,0,15,15,15,1,,
,,,,,,,,,,,,,1,5f18458a1facae24e6a1893c,001,2021-02-22_19h23.42.635,GuessTheSound,2020.2.10,Win32,60,,,,,,,,,,,,,,,Initial/NoRepeat/Sleighbells_B.wav,1,OLD,,,1,1,2.236285,0,16,16,16,1,,
,,,,,,,,,,,,,2,5f18458a1facae24e6a1893c,001,2021-02-22_19h23.42.635,GuessTheSound,2020.2.10,Win32,60,,,,,,,,,,,,,,,Test/Foils/Wind_B.wav,3,NEW,,,3,1,0.302555,0,17,17,17,1,,
,,,,,,,,,,,,,1,5f18458a1facae24e6a1893c,001,2021-02-22_19h23.42.635,GuessTheSound,2020.2.10,Win32,60,,,,,,,,,,,,,,,Initial/NoRepeat/Toilet_B.wav,1,OLD,,,1,1,0.38984,0,18,18,18,1,,
,,,,,,,,,,,,,2,5f18458a1facae24e6a1893c,001,2021-02-22_19h23.42.635,GuessTheSound,2020.2.10,Win32,60,,,,,,,,,,,,,,,Pour_C.wav,2,SIMILAR,,,1,0,0.18344,0,19,19,19,1,,
,,,,,,,,,,,,,2,5f18458a1facae24e6a1893c,001,2021-02-22_19h23.42.635,GuessTheSound,2020.2.10,Win32,60,,,,,,,,,,,,,,,Initial/Doubled/Chime_A.wav,2,SIMILAR,,,2,1,0.22538,0,20,20,20,1,,
,,,,,,,,,,,,,1,5f18458a1facae24e6a1893c,001,2021-02-22_19h23.42.635,GuessTheSound,2020.2.10,Win32,60,,,,,,,,,,,,,,,Initial/Repeat/Buzz.wav,1,OLD,,,1,1,0.277665,0,21,21,21,1,,
,,,,,,,,,,,,,2,5f18458a1facae24e6a1893c,001,2021-02-22_19h23.42.635,GuessTheSound,2020.2.10,Win32,60,,,,,,,,,,,,,,,Writing_C.wav,2,SIMILAR,,,2,1,0.3194,0,22,22,22,1,,
,,,,,,,,,,,,,1,5f18458a1facae24e6a1893c,001,2021-02-22_19h23.42.635,GuessTheSound,2020.2.10,Win32,60,,,,,,,,,,,,,,,Initial/NoRepeat/Mosquito_B.wav,1,OLD,,,1,1,0.2577,0,23,23,23,1,,
,,,,,,,,,,,,,2,5f18458a1facae24e6a1893c,001,2021-02-22_19h23.42.635,GuessTheSound,2020.2.10,Win32,60,,,,,,,,,,,,,,,Initial/Doubled/Cough_A.wav,3,NEW,,,3,1,0.05985,0,24,24,24,1,,
,,,,,,,,,,,,,1,5f18458a1facae24e6a1893c,001,2021-02-22_19h23.42.635,GuessTheSound,2020.2.10,Win32,60,,,,,,,,,,,,,,,Test/Foils/DialTone.wav,1,OLD,,,2,0,1.51191,0,25,25,25,1,,
,,,,,,,,,,,,,2,5f18458a1facae24e6a1893c,001,2021-02-22_19h23.42.635,GuessTheSound,2020.2.10,Win32,60,,,,,,,,,,,,,,,Initial/NoRepeat/Puff_A.wav,3,NEW,,,3,1,0.371155,0,26,26,26,1,,
,,,,,,,,,,,,,2,5f18458a1facae24e6a1893c,001,2021-02-22_19h23.42.635,GuessTheSound,2020.2.10,Win32,60,,,,,,,,,,,,,,,Test/Foils/Heartbeat.wav,3,NEW,,,3,1,0.000515,0,27,27,27,1,,
,,,,,,,,,,,,,2,5f18458a1facae24e6a1893c,001,2021-02-22_19h23.42.635,GuessTheSound,2020.2.10,Win32,60,,,,,,,,,,,,,,,Initial/Repeat/IceDrop.wav,3,NEW,,,2,0,0.26739,0,28,28,28,1,,
,,,,,,,,,,,,,2,5f18458a1facae24e6a1893c,001,2021-02-22_19h23.42.635,GuessTheSound,2020.2.10,Win32,60,,,,,,,,,,,,,,,Bird_D.wav,3,NEW,,,3,1,0.50019,0,29,29,29,1,,
,,,,,,,,,,,,,2,5f18458a1facae24e6a1893c,001,2021-02-22_19h23.42.635,GuessTheSound,2020.2.10,Win32,60,,,,,,,,,,,,,,,Baby_E.wav,2,SIMILAR,,,2,1,0.284145,0,30,30,30,1,,
,,,,,,,,,,,,,2,5f18458a1facae24e6a1893c,001,2021-02-22_19h23.42.635,GuessTheSound,2020.2.10,Win32,60,,,,,,,,,,,,,,,Faucet_B.wav,2,SIMILAR,,,3,0,0.194795,0,31,31,31,1,,
,,,,,,,,,,,,,2,5f18458a1facae24e6a1893c,001,2021-02-22_19h23.42.635,GuessTheSound,2020.2.10,Win32,60,,,,,,,,,,,,,,,Duck_A.wav,3,NEW,,,2,0,0.366475,0,32,32,32,1,,
,,,,,,,,,,,,,2,5f18458a1facae24e6a1893c,001,2021-02-22_19h23.42.635,GuessTheSound,2020.2.10,Win32,60,,,,,,,,,,,,,,,Initial/Doubled/Laugh_A.wav,3,NEW,,,3,1,0.268455,0,33,33,33,1,,
,,,,,,,,,,,,,1,5f18458a1facae24e6a1893c,001,2021-02-22_19h23.42.635,GuessTheSound,2020.2.10,Win32,60,,,,,,,,,,,,,,,Test/Foils/Wind_B.wav,1,OLD,,,2,0,0.272405,0,34,34,34,1,,
,,,,,,,,,,,,,2,5f18458a1facae24e6a1893c,001,2021-02-22_19h23.42.635,GuessTheSound,2020.2.10,Win32,60,,,,,,,,,,,,,,,Initial/Doubled/Chicken_A.wav,3,NEW,,,2,0,1.67157,0,35,35,35,1,,
,,,,,,,,,,,,,2,5f18458a1facae24e6a1893c,001,2021-02-22_19h23.42.635,GuessTheSound,2020.2.10,Win32,60,,,,,,,,,,,,,,,Test/Lures/Guitar_B.wav,3,NEW,,,3,1,0.67051,0,36,36,36,1,,
,,,,,,,,,,,,,2,5f18458a1facae24e6a1893c,001,2021-02-22_19h23.42.635,GuessTheSound,2020.2.10,Win32,60,,,,,,,,,,,,,,,Initial/Repeat/Cello.wav,3,NEW,,,3,1,1.040715,0,37,37,37,1,,
,,,,,,,,,,,,,1,5f18458a1facae24e6a1893c,001,2021-02-22_19h23.42.635,GuessTheSound,2020.2.10,Win32,60,,,,,,,,,,,,,,,Test/Foils/Heartbeat.wav,1,OLD,,,2,0,1.400405,0,38,38,38,1,,
,,,,,,,,,,,,,2,5f18458a1facae24e6a1893c,001,2021-02-22_19h23.42.635,GuessTheSound,2020.2.10,Win32,60,,,,,,,,,,,,,,,Initial/Repeat/Airplane_B.wav,3,NEW,,,3,1,0.11476,0,39,39,39,1,,
,,,,,,,,,,,,,2,5f18458a1facae24e6a1893c,001,2021-02-22_19h23.42.635,GuessTheSound,2020.2.10,Win32,60,,,,,,,,,,,,,,,Cough_E.wav,2,SIMILAR,,,2,1,2.58527,0,40,40,40,1,,
,,,,,,,,,,,,,2,5f18458a1facae24e6a1893c,001,2021-02-22_19h23.42.635,GuessTheSound,2020.2.10,Win32,60,,,,,,,,,,,,,,,Initial/Repeat/Trumpet_B.wav,3,NEW,,,3,1,0.236575,0,41,41,41,1,,
,,,,,,,,,,,,,1,5f18458a1facae24e6a1893c,001,2021-02-22_19h23.42.635,GuessTheSound,2020.2.10,Win32,60,,,,,,,,,,,,,,,Initial/Repeat/IceDrop.wav,1,OLD,,,1,1,0.431735,0,42,42,42,1,,
,,,,,,,,,,,,,2,5f18458a1facae24e6a1893c,001,2021-02-22_19h23.42.635,GuessTheSound,2020.2.10,Win32,60,,,,,,,,,,,,,,,Initial/Repeat/Sneeze_B.wav,3,NEW,,,2,0,0.71681,0,43,43,43,1,,
,,,,,,,,,,,,,1,5f18458a1facae24e6a1893c,001,2021-02-22_19h23.42.635,GuessTheSound,2020.2.10,Win32,60,,,,,,,,,,,,,,,Initial/NoRepeat/Puff_A.wav,1,OLD,,,2,0,0.313565,0,44,44,44,1,,
,,,,,,,,,,,,,2,5f18458a1facae24e6a1893c,001,2021-02-22_19h23.42.635,GuessTheSound,2020.2.10,Win32,60,,,,,,,,,,,,,,,Chick_A.wav,2,SIMILAR,,,2,1,0.24605,0,45,45,45,1,,
,,,,,,,,,,,,,2,5f18458a1facae24e6a1893c,001,2021-02-22_19h23.42.635,GuessTheSound,2020.2.10,Win32,60,,,,,,,,,,,,,,,Snore_D.wav,3,NEW,,,3,1,0.220705,0,46,46,46,1,,
,,,,,,,,,,,,,1,5f18458a1facae24e6a1893c,001,2021-02-22_19h23.42.635,GuessTheSound,2020.2.10,Win32,60,,,,,,,,,,,,,,,Test/Lures/Guitar_B.wav,1,OLD,,,1,1,0.979175,0,47,47,47,1,,
,,,,,,,,,,,,,2,5f18458a1facae24e6a1893c,001,2021-02-22_19h23.42.635,GuessTheSound,2020.2.10,Win32,60,,,,,,,,,,,,,,,Initial/Doubled/Cat_A.wav,3,NEW,,,3,1,0.312145,0,48,48,48,1,,
,,,,,,,,,,,,,2,5f18458a1facae24e6a1893c,001,2021-02-22_19h23.42.635,GuessTheSound,2020.2.10,Win32,60,,,,,,,,,,,,,,,Initial/Repeat/Whistle_A.wav,3,NEW,,,3,1,2.007135,0,49,49,49,1,,
,,,,,,,,,,,,,2,5f18458a1facae24e6a1893c,001,2021-02-22_19h23.42.635,GuessTheSound,2020.2.10,Win32,60,,,,,,,,,,,,,,,Duck_B.wav,2,SIMILAR,,,2,1,0.689245,0,50,50,50,1,,
,,,,,,,,,,,,,2,5f18458a1facae24e6a1893c,001,2021-02-22_19h23.42.635,GuessTheSound,2020.2.10,Win32,60,,,,,,,,,,,,,,,Laugh_D.wav,2,SIMILAR,,,2,1,0.01696,0,51,51,51,1,,
,,,,,,,,,,,,,1,5f18458a1facae24e6a1893c,001,2021-02-22_19h23.42.635,GuessTheSound,2020.2.10,Win32,60,,,,,,,,,,,,,,,Initial/Doubled/Chicken_A.wav,1,OLD,,,2,0,0.600705,0,52,52,52,1,,
,,,,,,,,,,,,,1,5f18458a1facae24e6a1893c,001,2021-02-22_19h23.42.635,GuessTheSound,2020.2.10,Win32,60,,,,,,,,,,,,,,,Initial/Repeat/Cello.wav,1,OLD,,,1,1,0.305385,0,53,53,53,1,,
,,,,,,,,,,,,,2,5f18458a1facae24e6a1893c,001,2021-02-22_19h23.42.635,GuessTheSound,2020.2.10,Win32,60,,,,,,,,,,,,,,,Test/Foils/Slurp.wav,3,NEW,,,3,1,0.356245,0,54,54,54,1,,
,,,,,,,,,,,,,2,5f18458a1facae24e6a1893c,001,2021-02-22_19h23.42.635,GuessTheSound,2020.2.10,Win32,60,,,,,,,,,,,,,,,Initial/Doubled/Chomp_A.wav,3,NEW,,,3,1,0.34853,0,55,55,55,1,,
,,,,,,,,,,,,,1,5f18458a1facae24e6a1893c,001,2021-02-22_19h23.42.635,GuessTheSound,2020.2.10,Win32,60,,,,,,,,,,,,,,,Initial/Repeat/Airplane_B.wav,1,OLD,,,2,0,0.933895,0,56,56,56,1,,
,,,,,,,,,,,,,2,5f18458a1facae24e6a1893c,001,2021-02-22_19h23.42.635,GuessTheSound,2020.2.10,Win32,60,,,,,,,,,,,,,,,Initial/Repeat/ManWhistle.wav,3,NEW,,,3,1,1.744845,0,57,57,57,1,,
,,,,,,,,,,,,,1,5f18458a1facae24e6a1893c,001,2021-02-22_19h23.42.635,GuessTheSound,2020.2.10,Win32,60,,,,,,,,,,,,,,,Initial/Repeat/Trumpet_B.wav,1,OLD,,,2,0,0.699275,0,58,58,58,1,,
,,,,,,,,,,,,,2,5f18458a1facae24e6a1893c,001,2021-02-22_19h23.42.635,GuessTheSound,2020.2.10,Win32,60,,,,,,,,,,,,,,,Initial/Repeat/Cup.wav,3,NEW,,,2,0,0.353935,0,59,59,59,1,,
,,,,,,,,,,,,,2,5f18458a1facae24e6a1893c,001,2021-02-22_19h23.42.635,GuessTheSound,2020.2.10,Win32,60,,,,,,,,,,,,,,,Snore_C.wav,2,SIMILAR,,,2,1,0.36733,0,60,60,60,1,,
,,,,,,,,,,,,,2,5f18458a1facae24e6a1893c,001,2021-02-22_19h23.42.635,GuessTheSound,2020.2.10,Win32,60,,,,,,,,,,,,,,,Test/Foils/Airhorn.wav,3,NEW,,,3,1,0.28442,0,61,61,61,1,,
,,,,,,,,,,,,,2,5f18458a1facae24e6a1893c,001,2021-02-22_19h23.42.635,GuessTheSound,2020.2.10,Win32,60,,,,,,,,,,,,,,,Whistle_C.wav,2,SIMILAR,,,2,1,0.1336,0,62,62,62,1,,
,,,,,,,,,,,,,2,5f18458a1facae24e6a1893c,001,2021-02-22_19h23.42.635,GuessTheSound,2020.2.10,Win32,60,,,,,,,,,,,,,,,Phone_D.wav,3,NEW,,,3,1,0.105915,0,63,63,63,1,,
,,,,,,,,,,,,,1,5f18458a1facae24e6a1893c,001,2021-02-22_19h23.42.635,GuessTheSound,2020.2.10,Win32,60,,,,,,,,,,,,,,,Initial/Repeat/Sneeze_B.wav,1,OLD,,,2,0,0.469225,0,64,64,64,1,,
,,,,,,,,,,,,,1,5f18458a1facae24e6a1893c,001,2021-02-22_19h23.42.635,GuessTheSound,2020.2.10,Win32,60,,,,,,,,,,,,,,,Initial/Doubled/Cat_A.wav,1,OLD,,,1,1,1.24115,0,65,65,65,1,,
,,,,,,,,,,,,,2,5f18458a1facae24e6a1893c,001,2021-02-22_19h23.42.635,GuessTheSound,2020.2.10,Win32,60,,,,,,,,,,,,,,,Initial/Repeat/Bagpipe.wav,3,NEW,,,3,1,2.765395,0,66,66,66,1,,
,,,,,,,,,,,,,1,5f18458a1facae24e6a1893c,001,2021-02-22_19h23.42.635,GuessTheSound,2020.2.10,Win32,60,,,,,,,,,,,,,,,Test/Foils/Slurp.wav,1,OLD,,,1,1,0.255555,0,67,67,67,1,,
,,,,,,,,,,,,,2,5f18458a1facae24e6a1893c,001,2021-02-22_19h23.42.635,GuessTheSound,2020.2.10,Win32,60,,,,,,,,,,,,,,,Test/Foils/Bowlingpins.wav,3,NEW,,,3,1,0.53739,0,68,68,68,1,,
,,,,,,,,,,,,,2,5f18458a1facae24e6a1893c,001,2021-02-22_19h23.42.635,GuessTheSound,2020.2.10,Win32,60,,,,,,,,,,,,,,,Initial/NoRepeat/Cow.wav,3,NEW,,,3,1,0.27483,0,69,69,69,1,,
,,,,,,,,,,,,,2,5f18458a1facae24e6a1893c,001,2021-02-22_19h23.42.635,GuessTheSound,2020.2.10,Win32,60,,,,,,,,,,,,,,,Initial/Doubled/Siren_A.wav,3,NEW,,,3,1,0.200275,0,70,70,70,1,,
,,,,,,,,,,,,,1,5f18458a1facae24e6a1893c,001,2021-02-22_19h23.42.635,GuessTheSound,2020.2.10,Win32,60,,,,,,,,,,,,,,,Initial/Repeat/ManWhistle.wav,1,OLD,,,1,1,0.401835,0,71,71,71,1,,
,,,,,,,,,,,,,2,5f18458a1facae24e6a1893c,001,2021-02-22_19h23.42.635,GuessTheSound,2020.2.10,Win32,60,,,,,,,,,,,,,,,Initial/Repeat/Crow_B.wav,3,NEW,,,3,1,0.524015,0,72,72,72,1,,
,,,,,,,,,,,,,2,5f18458a1facae24e6a1893c,001,2021-02-22_19h23.42.635,GuessTheSound,2020.2.10,Win32,60,,,,,,,,,,,,,,,Chomp_E.wav,2,SIMILAR,,,1,0,0.615265,0,73,73,73,1,,
,,,,,,,,,,,,,1,5f18458a1facae24e6a1893c,001,2021-02-22_19h23.42.635,GuessTheSound,2020.2.10,Win32,60,,,,,,,,,,,,,,,Initial/Repeat/Cup.wav,1,OLD,,,3,0,0.59671,0,74,74,74,1,,
,,,,,,,,,,,,,2,5f18458a1facae24e6a1893c,001,2021-02-22_19h23.42.635,GuessTheSound,2020.2.10,Win32,60,,,,,,,,,,,,,,,Test/Foils/Bullfrog.wav,3,NEW,,,3,1,0.184275,0,75,75,75,1,,
,,,,,,,,,,,,,2,5f18458a1facae24e6a1893c,001,2021-02-22_19h23.42.635,GuessTheSound,2020.2.10,Win32,60,,,,,,,,,,,,,,,Initial/Repeat/Phone_A.wav,2,SIMILAR,,,2,1,0.537575,0,76,76,76,1,,
,,,,,,,,,,,,,1,5f18458a1facae24e6a1893c,001,2021-02-22_19h23.42.635,GuessTheSound,2020.2.10,Win32,60,,,,,,,,,,,,,,,Initial/Repeat/Bagpipe.wav,1,OLD,,,2,0,0.38894,0,77,77,77,1,,
,,,,,,,,,,,,,2,5f18458a1facae24e6a1893c,001,2021-02-22_19h23.42.635,GuessTheSound,2020.2.10,Win32,60,,,,,,,,,,,,,,,Initial/Doubled/HairDryer_A.wav,3,NEW,,,3,1,0.828715,0,78,78,78,1,,
,,,,,,,,,,,,,1,5f18458a1facae24e6a1893c,001,2021-02-22_19h23.42.635,GuessTheSound,2020.2.10,Win32,60,,,,,,,,,,,,,,,Test/Foils/Airhorn.wav,1,OLD,,,1,1,0.23675,0,79,79,79,1,,
,,,,,,,,,,,,,2,5f18458a1facae24e6a1893c,001,2021-02-22_19h23.42.635,GuessTheSound,2020.2.10,Win32,60,,,,,,,,,,,,,,,Initial/NoRepeat/Hammer_A.wav,3,NEW,,,3,1,3.03714,0,80,80,80,1,,
,,,,,,,,,,,,,2,5f18458a1facae24e6a1893c,001,2021-02-22_19h23.42.635,GuessTheSound,2020.2.10,Win32,60,,,,,,,,,,,,,,,Initial/Doubled/Cuckoo_A.wav,3,NEW,,,3,1,0.51684,0,81,81,81,1,,
,,,,,,,,,,,,,1,5f18458a1facae24e6a1893c,001,2021-02-22_19h23.42.635,GuessTheSound,2020.2.10,Win32,60,,,,,,,,,,,,,,,Initial/NoRepeat/Cow.wav,1,OLD,,,2,0,0.277065,0,82,82,82,1,,
,,,,,,,,,,,,,2,5f18458a1facae24e6a1893c,001,2021-02-22_19h23.42.635,GuessTheSound,2020.2.10,Win32,60,,,,,,,,,,,,,,,Initial/NoRepeat/Footsteps_B.wav,3,NEW,,,2,0,0.35042,0,83,83,83,1,,
,,,,,,,,,,,,,2,5f18458a1facae24e6a1893c,001,2021-02-22_19h23.42.635,GuessTheSound,2020.2.10,Win32,60,,,,,,,,,,,,,,,Dog_E.wav,3,NEW,,,3,1,0.2954,0,84,84,84,1,,
,,,,,,,,,,,,,1,5f18458a1facae24e6a1893c,001,2021-02-22_19h23.42.635,GuessTheSound,2020.2.10,Win32,60,,,,,,,,,,,,,,,Test/Foils/Bowlingpins.wav,1,OLD,,,2,0,0.010255,0,85,85,85,1,,
,,,,,,,,,,,,,2,5f18458a1facae24e6a1893c,001,2021-02-22_19h23.42.635,GuessTheSound,2020.2.10,Win32,60,,,,,,,,,,,,,,,Piano_D.wav,3,NEW,,,3,1,0.2051,0,86,86,86,1,,
,,,,,,,,,,,,,2,5f18458a1facae24e6a1893c,001,2021-02-22_19h23.42.635,GuessTheSound,2020.2.10,Win32,60,,,,,,,,,,,,,,,Initial/NoRepeat/Fireworks.wav,3,NEW,,,3,1,3.25625,0,87,87,87,1,,
,,,,,,,,,,,,,1,5f18458a1facae24e6a1893c,001,2021-02-22_19h23.42.635,GuessTheSound,2020.2.10,Win32,60,,,,,,,,,,,,,,,Test/Foils/Bullfrog.wav,1,OLD,,,1,1,0.28948,0,88,88,88,1,,
,,,,,,,,,,,,,2,5f18458a1facae24e6a1893c,001,2021-02-22_19h23.42.635,GuessTheSound,2020.2.10,Win32,60,,,,,,,,,,,,,,,Siren_B.wav,2,SIMILAR,,,3,0,0.14162,0,89,89,89,1,,
,,,,,,,,,,,,,2,5f18458a1facae24e6a1893c,001,2021-02-22_19h23.42.635,GuessTheSound,2020.2.10,Win32,60,,,,,,,,,,,,,,,Crow_A.wav,2,SIMILAR,,,1,0,0.28985,0,90,90,90,1,,
,,,,,,,,,,,,,2,5f18458a1facae24e6a1893c,001,2021-02-22_19h23.42.635,GuessTheSound,2020.2.10,Win32,60,,,,,,,,,,,,,,,Goat_D.wav,3,NEW,,,3,1,0.24139,0,91,91,91,1,,
,,,,,,,,,,,,,1,5f18458a1facae24e6a1893c,001,2021-02-22_19h23.42.635,GuessTheSound,2020.2.10,Win32,60,,,,,,,,,,,,,,,Initial/Doubled/HairDryer_A.wav,1,OLD,,,3,0,0.01536,0,92,92,92,1,,
,,,,,,,,,,,,,1,5f18458a1facae24e6a1893c,001,2021-02-22_19h23.42.635,GuessTheSound,2020.2.10,Win32,60,,,,,,,,,,,,,,,Initial/Doubled/Cuckoo_A.wav,1,OLD,,,1,1,0.58384,0,93,93,93,1,,
,,,,,,,,,,,,,2,5f18458a1facae24e6a1893c,001,2021-02-22_19h23.42.635,GuessTheSound,2020.2.10,Win32,60,,,,,,,,,,,,,,,Coin_D.wav,3,NEW,,,3,1,1.254065,0,94,94,94,1,,
,,,,,,,,,,,,,2,5f18458a1facae24e6a1893c,001,2021-02-22_19h23.42.635,GuessTheSound,2020.2.10,Win32,60,,,,,,,,,,,,,,,Initial/Repeat/Howl.wav,3,NEW,,,3,1,1.135845,0,95,95,95,1,,
,,,,,,,,,,,,,1,5f18458a1facae24e6a1893c,001,2021-02-22_19h23.42.635,GuessTheSound,2020.2.10,Win32,60,,,,,,,,,,,,,,,Initial/NoRepeat/Hammer_A.wav,1,OLD,,,2,0,0.39988,0,96,96,96,1,,
,,,,,,,,,,,,,2,5f18458a1facae24e6a1893c,001,2021-02-22_19h23.42.635,GuessTheSound,2020.2.10,Win32,60,,,,,,,,,,,,,,,Initial/NoRepeat/Helicopter_A.wav,3,NEW,,,3,1,0.083625,0,97,97,97,1,,
,,,,,,,,,,,,,2,5f18458a1facae24e6a1893c,001,2021-02-22_19h23.42.635,GuessTheSound,2020.2.10,Win32,60,,,,,,,,,,,,,,,Initial/Doubled/Bubbles_A.wav,3,NEW,,,3,1,0.795345,0,98,98,98,1,,
,,,,,,,,,,,,,2,5f18458a1facae24e6a1893c,001,2021-02-22_19h23.42.635,GuessTheSound,2020.2.10,Win32,60,,,,,,,,,,,,,,,Footsteps_C.wav,2,SIMILAR,,,2,1,1.460895,0,99,99,99,1,,
,,,,,,,,,,,,,2,5f18458a1facae24e6a1893c,001,2021-02-22_19h23.42.635,GuessTheSound,2020.2.10,Win32,60,,,,,,,,,,,,,,,Growl_E.wav,3,NEW,,,3,1,0.08356,0,100,100,100,1,,
,,,,,,,,,,,,,2,5f18458a1facae24e6a1893c,001,2021-02-22_19h23.42.635,GuessTheSound,2020.2.10,Win32,60,,,,,,,,,,,,,,,Test/Foils/Horse.wav,3,NEW,,,3,1,0.121565,0,101,101,101,1,,
,,,,,,,,,,,,,1,5f18458a1facae24e6a1893c,001,2021-02-22_19h23.42.635,GuessTheSound,2020.2.10,Win32,60,,,,,,,,,,,,,,,Piano_D.wav,1,OLD,,,2,0,0.23652,0,102,102,102,1,,
,,,,,,,,,,,,,2,5f18458a1facae24e6a1893c,001,2021-02-22_19h23.42.635,GuessTheSound,2020.2.10,Win32,60,,,,,,,,,,,,,,,Dog_F.wav,2,SIMILAR,,,2,1,0.306535,0,103,103,103,1,,
,,,,,,,,,,,,,1,5f18458a1facae24e6a1893c,001,2021-02-22_19h23.42.635,GuessTheSound,2020.2.10,Win32,60,,,,,,,,,,,,,,,Initial/NoRepeat/Fireworks.wav,1,OLD,,,1,1,0.23394,0,104,104,104,1,,
,,,,,,,,,,,,,2,5f18458a1facae24e6a1893c,001,2021-02-22_19h23.42.635,GuessTheSound,2020.2.10,Win32,60,,,,,,,,,,,,,,,Initial/Repeat/Printer.wav,3,NEW,,,3,1,0.482735,0,105,105,105,1,,
,,,,,,,,,,,,,2,5f18458a1facae24e6a1893c,001,2021-02-22_19h23.42.635,GuessTheSound,2020.2.10,Win32,60,,,,,,,,,,,,,,,Test/Foils/Camera.wav,3,NEW,,,3,1,2.15569,0,106,106,106,1,,
,,,,,,,,,,,,,2,5f18458a1facae24e6a1893c,001,2021-02-22_19h23.42.635,GuessTheSound,2020.2.10,Win32,60,,,,,,,,,,,,,,,Clap_B.wav,3,NEW,,,2,0,1.611055,0,107,107,107,1,,
,,,,,,,,,,,,,2,5f18458a1facae24e6a1893c,001,2021-02-22_19h23.42.635,GuessTheSound,2020.2.10,Win32,60,,,,,,,,,,,,,,,Initial/Repeat/PaperRip.wav,3,NEW,,,3,1,1.58502,0,108,108,108,1,,
,,,,,,,,,,,,,2,5f18458a1facae24e6a1893c,001,2021-02-22_19h23.42.635,GuessTheSound,2020.2.10,Win32,60,,,,,,,,,,,,,,,Coin_E.wav,2,SIMILAR,,,2,1,0.56209,0,109,109,109,1,,
,,,,,,,,,,,,,2,5f18458a1facae24e6a1893c,001,2021-02-22_19h23.42.635,GuessTheSound,2020.2.10,Win32,60,,,,,,,,,,,,,,,Initial/NoRepeat/Droplet_B.wav,3,NEW,,,3,1,0.4228,0,110,110,110,1,,
,,,,,,,,,,,,,2,5f18458a1facae24e6a1893c,001,2021-02-22_19h23.42.635,GuessTheSound,2020.2.10,Win32,60,,,,,,,,,,,,,,,Test/Foils/Steam.wav,3,NEW,,,3,1,0.844835,0,111,111,111,1,,
,,,,,,,,,,,,,1,5f18458a1facae24e6a1893c,001,2021-02-22_19h23.42.635,GuessTheSound,2020.2.10,Win32,60,,,,,,,,,,,,,,,Initial/NoRepeat/Helicopter_A.wav,1,OLD,,,1,1,0.084445,0,112,112,112,1,,
,,,,,,,,,,,,,2,5f18458a1facae24e6a1893c,001,2021-02-22_19h23.42.635,GuessTheSound,2020.2.10,Win32,60,,,,,,,,,,,,,,,CarStart_F.wav,3,NEW,,,3,1,0.686045,0,113,113,113,1,,
,,,,,,,,,,,,,1,5f18458a1facae24e6a1893c,001,2021-02-22_19h23.42.635,GuessTheSound,2020.2.10,Win32,60,,,,,,,,,,,,,,,Initial/Repeat/Howl.wav,1,OLD,,,1,1,0.117235,0,114,114,114,1,,
,,,,,,,,,,,,,2,5f18458a1facae24e6a1893c,001,2021-02-22_19h23.42.635,GuessTheSound,2020.2.10,Win32,60,,,,,,,,,,,,,,,Growl_F.wav,2,SIMILAR,,,3,0,0.26728,0,115,115,115,1,,
,,,,,,,,,,,,,2,5f18458a1facae24e6a1893c,001,2021-02-22_19h23.42.635,GuessTheSound,2020.2.10,Win32,60,,,,,,,,,,,,,,,Goat_C.wav,2,SIMILAR,,,2,1,0.283435,0,116,116,116,1,,
,,,,,,,,,,,,,2,5f18458a1facae24e6a1893c,001,2021-02-22_19h23.42.635,GuessTheSound,2020.2.10,Win32,60,,,,,,,,,,,,,,,Test/Foils/Donkey.wav,3,NEW,,,3,1,0.02677,0,117,117,117,1,,
,,,,,,,,,,,,,1,5f18458a1facae24e6a1893c,001,2021-02-22_19h23.42.635,GuessTheSound,2020.2.10,Win32,60,,,,,,,,,,,,,,,Initial/Repeat/PaperRip.wav,1,OLD,,,2,0,0.347105,0,118,118,118,1,,
,,,,,,,,,,,,,2,5f18458a1facae24e6a1893c,001,2021-02-22_19h23.42.635,GuessTheSound,2020.2.10,Win32,60,,,,,,,,,,,,,,,Test/Lures/Bubbles_B.wav,2,SIMILAR,,,2,1,0.207945,0,119,119,119,1,,
,,,,,,,,,,,,,1,5f18458a1facae24e6a1893c,001,2021-02-22_19h23.42.635,GuessTheSound,2020.2.10,Win32,60,,,,,,,,,,,,,,,Test/Foils/Horse.wav,1,OLD,,,2,0,0.05026,0,120,120,120,1,,
,,,,,,,,,,,,,1,5f18458a1facae24e6a1893c,001,2021-02-22_19h23.42.635,GuessTheSound,2020.2.10,Win32,60,,,,,,,,,,,,,,,Initial/Repeat/Printer.wav,1,OLD,,,1,1,0.234645,0,121,121,121,1,,
,,,,,,,,,,,,,1,5f18458a1facae24e6a1893c,001,2021-02-22_19h23.42.635,GuessTheSound,2020.2.10,Win32,60,,,,,,,,,,,,,,,Test/Foils/Camera.wav,1,OLD,,,1,1,0.460215,0,122,122,122,1,,
,,,,,,,,,,,,,1,5f18458a1facae24e6a1893c,001,2021-02-22_19h23.42.635,GuessTheSound,2020.2.10,Win32,60,,,,,,,,,,,,,,,Initial/NoRepeat/Droplet_B.wav,1,OLD,,,2,0,0.42614,0,123,123,123,1,,
,,,,,,,,,,,,,1,5f18458a1facae24e6a1893c,001,2021-02-22_19h23.42.635,GuessTheSound,2020.2.10,Win32,60,,,,,,,,,,,,,,,Test/Foils/Steam.wav,1,OLD,,,3,0,0.17813,0,124,124,124,1,,
,,,,,,,,,,,,,2,5f18458a1facae24e6a1893c,001,2021-02-22_19h23.42.635,GuessTheSound,2020.2.10,Win32,60,,,,,,,,,,,,,,,CarStart_E.wav,2,SIMILAR,,,1,0,0.25585,0,125,125,125,1,,
,,,,,,,,,,,,,1,5f18458a1facae24e6a1893c,001,2021-02-22_19h23.42.635,GuessTheSound,2020.2.10,Win32,60,,,,,,,,,,,,,,,Test/Foils/Donkey.wav,1,OLD,,,1,1,0.126155,0,126,126,126,1,,
,,,,,,,,,,,,,2,5f18458a1facae24e6a1893c,001,2021-02-22_19h23.42.635,GuessTheSound,2020.2.10,Win32,60,,,,,,,,,,,,,,,Clap_C.wav,2,SIMILAR,,,2,1,1.74432,0,127,127,127,1,,
,,,,,,,,,,,,,,5f18458a1facae24e6a1893c,001,2021-02-22_19h23.42.635,GuessTheSound,2020.2.10,Win32,60,,,,,,,,,,,,,,,,,,,,,,,,,,,,space,17.19437
