VolumeContinueKey.keys,VolumeContinueKey.rt,HeadphoneContinueKey.keys,HeadphoneContinueKey.rt,CheckResp.keys,CheckResp.corr,CheckResp.rt,trials_2.thisRepN,trials_2.thisTrialN,trials_2.thisN,trials_2.thisIndex,trials_2.ran,File,Correct,participant,session,date,expName,psychopyVersion,OS,frameRate,ContinueResp.keys,ContinueResp.rt,Wel2ContinueKey.keys,Wel2ContinueKey.rt,WelcomeContinueKey2.keys,WelcomeContinueKey2.rt,Practice_resp.keys,Practice_resp.corr,Practice_resp.rt,PracticeTrials.thisRepN,PracticeTrials.thisTrialN,PracticeTrials.thisN,PracticeTrials.thisIndex,PracticeTrials.ran,SoundFile5,Correct2,Type,StartTast.keys,StartTast.rt,MSTResp.keys,MSTResp.corr,MSTResp.rt,trials.thisRepN,trials.thisTrialN,trials.thisN,trials.thisIndex,trials.ran,ExitKey.keys,ExitKey.rt
space,5.39,space,6.898,1,1,2.533,0,0,0,1,1,Headphone/t1_2.wav,1,5e4a932344498f4e361fee0d,001,2021-02-20_01h54.31.416,GuessTheSound,2020.2.10,Win32,60,,,,,,,,,,,,,,,,,,,,,,,,,,,,,
,,,,2,1,0.276,0,1,1,2,1,Headphone/t2_1.wav,2,5e4a932344498f4e361fee0d,001,2021-02-20_01h54.31.416,GuessTheSound,2020.2.10,Win32,60,,,,,,,,,,,,,,,,,,,,,,,,,,,,,
,,,,1,1,0.255,0,2,2,0,1,Headphone/t1_1.wav,1,5e4a932344498f4e361fee0d,001,2021-02-20_01h54.31.416,GuessTheSound,2020.2.10,Win32,60,,,,,,,,,,,,,,,,,,,,,,,,,,,,,
,,,,2,1,0.242,0,3,3,3,1,Headphone/t2_2.wav,2,5e4a932344498f4e361fee0d,001,2021-02-20_01h54.31.416,GuessTheSound,2020.2.10,Win32,60,,,,,,,,,,,,,,,,,,,,,,,,,,,,,
,,,,3,1,0.218,0,4,4,5,1,Headphone/t3_2.wav,3,5e4a932344498f4e361fee0d,001,2021-02-20_01h54.31.416,GuessTheSound,2020.2.10,Win32,60,,,,,,,,,,,,,,,,,,,,,,,,,,,,,
,,,,3,1,0.285,0,5,5,4,1,Headphone/t3_1.wav,3,5e4a932344498f4e361fee0d,001,2021-02-20_01h54.31.416,GuessTheSound,2020.2.10,Win32,60,,,,,,,,,,,,,,,,,,,,,,,,,,,,,
,,,,,,,,,,,,,2,5e4a932344498f4e361fee0d,001,2021-02-20_01h54.31.416,GuessTheSound,2020.2.10,Win32,60,space,9.199,space,9.845,space,3.613,3,1,0.773,0,0,0,0,1,Practice/Seagull_A.wav,3,NEW,,,,,,,,,,,,
,,,,,,,,,,,,,2,5e4a932344498f4e361fee0d,001,2021-02-20_01h54.31.416,GuessTheSound,2020.2.10,Win32,60,,,,,,,3,1,0.307,0,1,1,1,1,Practice/Skid_B.wav,3,NEW,,,,,,,,,,,,
,,,,,,,,,,,,,1,5e4a932344498f4e361fee0d,001,2021-02-20_01h54.31.416,GuessTheSound,2020.2.10,Win32,60,,,,,,,1,1,1.152,0,2,2,2,1,Practice/Seagull_A.wav,1,OLD,,,,,,,,,,,,
,,,,,,,,,,,,,2,5e4a932344498f4e361fee0d,001,2021-02-20_01h54.31.416,GuessTheSound,2020.2.10,Win32,60,,,,,,,3,1,0.347,0,3,3,3,1,Practice/Gargle_A.wav,3,NEW,,,,,,,,,,,,
,,,,,,,,,,,,,2,5e4a932344498f4e361fee0d,001,2021-02-20_01h54.31.416,GuessTheSound,2020.2.10,Win32,60,,,,,,,2,1,0.601,0,4,4,4,1,Practice/Gargle_B.wav,2,SIMILAR,,,,,,,,,,,,
,,,,,,,,,,,,,2,5e4a932344498f4e361fee0d,001,2021-02-20_01h54.31.416,GuessTheSound,2020.2.10,Win32,60,,,,,,,,,,,,,,,Initial/NoRepeat/Elephant_A.wav,3,NEW,space,8.628,3,1,0.928,0,0,0,0,1,,
,,,,,,,,,,,,,2,5e4a932344498f4e361fee0d,001,2021-02-20_01h54.31.416,GuessTheSound,2020.2.10,Win32,60,,,,,,,,,,,,,,,Initial/NoRepeat/Thunder_A.wav,3,NEW,,,3,1,0.251,0,1,1,1,1,,
,,,,,,,,,,,,,2,5e4a932344498f4e361fee0d,001,2021-02-20_01h54.31.416,GuessTheSound,2020.2.10,Win32,60,,,,,,,,,,,,,,,Test/Lures/Chime_B.wav,3,NEW,,,3,1,0.29,0,2,2,2,1,,
,,,,,,,,,,,,,2,5e4a932344498f4e361fee0d,001,2021-02-20_01h54.31.416,GuessTheSound,2020.2.10,Win32,60,,,,,,,,,,,,,,,Initial/NoRepeat/Toilet_B.wav,3,NEW,,,3,1,0.287,0,3,3,3,1,,
,,,,,,,,,,,,,2,5e4a932344498f4e361fee0d,001,2021-02-20_01h54.31.416,GuessTheSound,2020.2.10,Win32,60,,,,,,,,,,,,,,,Test/Foils/Typing.wav,3,NEW,,,3,1,0.351,0,4,4,4,1,,
,,,,,,,,,,,,,2,5e4a932344498f4e361fee0d,001,2021-02-20_01h54.31.416,GuessTheSound,2020.2.10,Win32,60,,,,,,,,,,,,,,,Initial/Repeat/Pour.wav,3,NEW,,,3,1,0.289,0,5,5,5,1,,
,,,,,,,,,,,,,2,5e4a932344498f4e361fee0d,001,2021-02-20_01h54.31.416,GuessTheSound,2020.2.10,Win32,60,,,,,,,,,,,,,,,Initial/NoRepeat/Sleighbells_B.wav,3,NEW,,,3,1,1.468,0,6,6,6,1,,
,,,,,,,,,,,,,1,5e4a932344498f4e361fee0d,001,2021-02-20_01h54.31.416,GuessTheSound,2020.2.10,Win32,60,,,,,,,,,,,,,,,Initial/NoRepeat/Thunder_A.wav,1,OLD,,,1,1,2.237,0,7,7,7,1,,
,,,,,,,,,,,,,2,5e4a932344498f4e361fee0d,001,2021-02-20_01h54.31.416,GuessTheSound,2020.2.10,Win32,60,,,,,,,,,,,,,,,Initial/Repeat/Buzz.wav,3,NEW,,,3,1,0.708,0,8,8,8,1,,
,,,,,,,,,,,,,2,5e4a932344498f4e361fee0d,001,2021-02-20_01h54.31.416,GuessTheSound,2020.2.10,Win32,60,,,,,,,,,,,,,,,Initial/NoRepeat/Baby_B.wav,3,NEW,,,3,1,0.284,0,9,9,9,1,,
,,,,,,,,,,,,,2,5e4a932344498f4e361fee0d,001,2021-02-20_01h54.31.416,GuessTheSound,2020.2.10,Win32,60,,,,,,,,,,,,,,,Initial/NoRepeat/Mosquito_B.wav,3,NEW,,,3,1,0.769,0,10,10,10,1,,
,,,,,,,,,,,,,1,5e4a932344498f4e361fee0d,001,2021-02-20_01h54.31.416,GuessTheSound,2020.2.10,Win32,60,,,,,,,,,,,,,,,Test/Foils/Typing.wav,1,OLD,,,2,0,0.369,0,11,11,11,1,,
,,,,,,,,,,,,,2,5e4a932344498f4e361fee0d,001,2021-02-20_01h54.31.416,GuessTheSound,2020.2.10,Win32,60,,,,,,,,,,,,,,,Initial/Doubled/Chime_A.wav,2,SIMILAR,,,2,1,1.321,0,12,12,12,1,,
,,,,,,,,,,,,,2,5e4a932344498f4e361fee0d,001,2021-02-20_01h54.31.416,GuessTheSound,2020.2.10,Win32,60,,,,,,,,,,,,,,,Test/Foils/DialTone.wav,3,NEW,,,3,1,0.402,0,13,13,13,1,,
,,,,,,,,,,,,,2,5e4a932344498f4e361fee0d,001,2021-02-20_01h54.31.416,GuessTheSound,2020.2.10,Win32,60,,,,,,,,,,,,,,,Elephant_B.wav,2,SIMILAR,,,2,1,0.286,0,14,14,14,1,,
,,,,,,,,,,,,,2,5e4a932344498f4e361fee0d,001,2021-02-20_01h54.31.416,GuessTheSound,2020.2.10,Win32,60,,,,,,,,,,,,,,,Initial/Doubled/Writing_A.wav,3,NEW,,,3,1,0.309,0,15,15,15,1,,
,,,,,,,,,,,,,2,5e4a932344498f4e361fee0d,001,2021-02-20_01h54.31.416,GuessTheSound,2020.2.10,Win32,60,,,,,,,,,,,,,,,Initial/NoRepeat/Faucet_A.wav,3,NEW,,,3,1,0.772,0,16,16,16,1,,
,,,,,,,,,,,,,1,5e4a932344498f4e361fee0d,001,2021-02-20_01h54.31.416,GuessTheSound,2020.2.10,Win32,60,,,,,,,,,,,,,,,Initial/NoRepeat/Toilet_B.wav,1,OLD,,,1,1,0.426,0,17,17,17,1,,
,,,,,,,,,,,,,1,5e4a932344498f4e361fee0d,001,2021-02-20_01h54.31.416,GuessTheSound,2020.2.10,Win32,60,,,,,,,,,,,,,,,Initial/NoRepeat/Sleighbells_B.wav,1,OLD,,,1,1,0.288,0,18,18,18,1,,
,,,,,,,,,,,,,2,5e4a932344498f4e361fee0d,001,2021-02-20_01h54.31.416,GuessTheSound,2020.2.10,Win32,60,,,,,,,,,,,,,,,Test/Foils/Wind_B.wav,3,NEW,,,3,1,0.35,0,19,19,19,1,,
,,,,,,,,,,,,,2,5e4a932344498f4e361fee0d,001,2021-02-20_01h54.31.416,GuessTheSound,2020.2.10,Win32,60,,,,,,,,,,,,,,,Pour_C.wav,2,SIMILAR,,,2,1,0.317,0,20,20,20,1,,
,,,,,,,,,,,,,1,5e4a932344498f4e361fee0d,001,2021-02-20_01h54.31.416,GuessTheSound,2020.2.10,Win32,60,,,,,,,,,,,,,,,Initial/Repeat/Buzz.wav,1,OLD,,,1,1,0.287,0,21,21,21,1,,
,,,,,,,,,,,,,2,5e4a932344498f4e361fee0d,001,2021-02-20_01h54.31.416,GuessTheSound,2020.2.10,Win32,60,,,,,,,,,,,,,,,Baby_A.wav,2,SIMILAR,,,2,1,0.152,0,22,22,22,1,,
,,,,,,,,,,,,,2,5e4a932344498f4e361fee0d,001,2021-02-20_01h54.31.416,GuessTheSound,2020.2.10,Win32,60,,,,,,,,,,,,,,,Writing_C.wav,2,SIMILAR,,,2,1,0.278,0,23,23,23,1,,
,,,,,,,,,,,,,1,5e4a932344498f4e361fee0d,001,2021-02-20_01h54.31.416,GuessTheSound,2020.2.10,Win32,60,,,,,,,,,,,,,,,Initial/NoRepeat/Mosquito_B.wav,1,OLD,,,1,1,0.542,0,24,24,24,1,,
,,,,,,,,,,,,,2,5e4a932344498f4e361fee0d,001,2021-02-20_01h54.31.416,GuessTheSound,2020.2.10,Win32,60,,,,,,,,,,,,,,,Initial/Doubled/Cough_A.wav,3,NEW,,,3,1,0.318,0,25,25,25,1,,
,,,,,,,,,,,,,1,5e4a932344498f4e361fee0d,001,2021-02-20_01h54.31.416,GuessTheSound,2020.2.10,Win32,60,,,,,,,,,,,,,,,Test/Foils/DialTone.wav,1,OLD,,,1,1,0.25,0,26,26,26,1,,
,,,,,,,,,,,,,2,5e4a932344498f4e361fee0d,001,2021-02-20_01h54.31.416,GuessTheSound,2020.2.10,Win32,60,,,,,,,,,,,,,,,Test/Foils/Heartbeat.wav,3,NEW,,,3,1,0.323,0,27,27,27,1,,
,,,,,,,,,,,,,2,5e4a932344498f4e361fee0d,001,2021-02-20_01h54.31.416,GuessTheSound,2020.2.10,Win32,60,,,,,,,,,,,,,,,Initial/Repeat/IceDrop.wav,3,NEW,,,3,1,0.467,0,28,28,28,1,,
,,,,,,,,,,,,,2,5e4a932344498f4e361fee0d,001,2021-02-20_01h54.31.416,GuessTheSound,2020.2.10,Win32,60,,,,,,,,,,,,,,,Bird_B.wav,3,NEW,,,3,1,0.439,0,29,29,29,1,,
,,,,,,,,,,,,,2,5e4a932344498f4e361fee0d,001,2021-02-20_01h54.31.416,GuessTheSound,2020.2.10,Win32,60,,,,,,,,,,,,,,,Initial/NoRepeat/Puff_A.wav,3,NEW,,,3,1,0.474,0,30,30,30,1,,
,,,,,,,,,,,,,2,5e4a932344498f4e361fee0d,001,2021-02-20_01h54.31.416,GuessTheSound,2020.2.10,Win32,60,,,,,,,,,,,,,,,Faucet_B.wav,2,SIMILAR,,,3,0,2.986,0,31,31,31,1,,
,,,,,,,,,,,,,2,5e4a932344498f4e361fee0d,001,2021-02-20_01h54.31.416,GuessTheSound,2020.2.10,Win32,60,,,,,,,,,,,,,,,Initial/NoRepeat/Duck_A.wav,3,NEW,,,3,1,0.527,0,32,32,32,1,,
,,,,,,,,,,,,,2,5e4a932344498f4e361fee0d,001,2021-02-20_01h54.31.416,GuessTheSound,2020.2.10,Win32,60,,,,,,,,,,,,,,,Initial/Doubled/Laugh_A.wav,3,NEW,,,3,1,0.005,0,33,33,33,1,,
,,,,,,,,,,,,,1,5e4a932344498f4e361fee0d,001,2021-02-20_01h54.31.416,GuessTheSound,2020.2.10,Win32,60,,,,,,,,,,,,,,,Test/Foils/Wind_B.wav,1,OLD,,,1,1,0.303,0,34,34,34,1,,
,,,,,,,,,,,,,2,5e4a932344498f4e361fee0d,001,2021-02-20_01h54.31.416,GuessTheSound,2020.2.10,Win32,60,,,,,,,,,,,,,,,Initial/Doubled/Chicken_A.wav,3,NEW,,,3,1,0.453,0,35,35,35,1,,
,,,,,,,,,,,,,2,5e4a932344498f4e361fee0d,001,2021-02-20_01h54.31.416,GuessTheSound,2020.2.10,Win32,60,,,,,,,,,,,,,,,Test/Lures/Guitar_B.wav,3,NEW,,,3,1,0.305,0,36,36,36,1,,
,,,,,,,,,,,,,2,5e4a932344498f4e361fee0d,001,2021-02-20_01h54.31.416,GuessTheSound,2020.2.10,Win32,60,,,,,,,,,,,,,,,Initial/Repeat/Cello.wav,3,NEW,,,3,1,0.27,0,37,37,37,1,,
,,,,,,,,,,,,,1,5e4a932344498f4e361fee0d,001,2021-02-20_01h54.31.416,GuessTheSound,2020.2.10,Win32,60,,,,,,,,,,,,,,,Test/Foils/Heartbeat.wav,1,OLD,,,1,1,0.272,0,38,38,38,1,,
,,,,,,,,,,,,,2,5e4a932344498f4e361fee0d,001,2021-02-20_01h54.31.416,GuessTheSound,2020.2.10,Win32,60,,,,,,,,,,,,,,,Initial/Repeat/Airplane_B.wav,3,NEW,,,3,1,0.301,0,39,39,39,1,,
,,,,,,,,,,,,,2,5e4a932344498f4e361fee0d,001,2021-02-20_01h54.31.416,GuessTheSound,2020.2.10,Win32,60,,,,,,,,,,,,,,,Cough_E.wav,2,SIMILAR,,,2,1,0.275,0,40,40,40,1,,
,,,,,,,,,,,,,2,5e4a932344498f4e361fee0d,001,2021-02-20_01h54.31.416,GuessTheSound,2020.2.10,Win32,60,,,,,,,,,,,,,,,Test/Foils/Bird.wav,2,SIMILAR,,,3,0,0.268,0,41,41,41,1,,
,,,,,,,,,,,,,2,5e4a932344498f4e361fee0d,001,2021-02-20_01h54.31.416,GuessTheSound,2020.2.10,Win32,60,,,,,,,,,,,,,,,Initial/Repeat/Trumpet_B.wav,3,NEW,,,3,1,0.183,0,42,42,42,1,,
,,,,,,,,,,,,,1,5e4a932344498f4e361fee0d,001,2021-02-20_01h54.31.416,GuessTheSound,2020.2.10,Win32,60,,,,,,,,,,,,,,,Initial/Repeat/IceDrop.wav,1,OLD,,,1,1,0.352,0,43,43,43,1,,
,,,,,,,,,,,,,2,5e4a932344498f4e361fee0d,001,2021-02-20_01h54.31.416,GuessTheSound,2020.2.10,Win32,60,,,,,,,,,,,,,,,Initial/Repeat/Sneeze_B.wav,3,NEW,,,3,1,0.567,0,44,44,44,1,,
,,,,,,,,,,,,,1,5e4a932344498f4e361fee0d,001,2021-02-20_01h54.31.416,GuessTheSound,2020.2.10,Win32,60,,,,,,,,,,,,,,,Initial/NoRepeat/Puff_A.wav,1,OLD,,,2,0,0.494,0,45,45,45,1,,
,,,,,,,,,,,,,2,5e4a932344498f4e361fee0d,001,2021-02-20_01h54.31.416,GuessTheSound,2020.2.10,Win32,60,,,,,,,,,,,,,,,Snore_A.wav,3,NEW,,,3,1,0.337,0,46,46,46,1,,
,,,,,,,,,,,,,1,5e4a932344498f4e361fee0d,001,2021-02-20_01h54.31.416,GuessTheSound,2020.2.10,Win32,60,,,,,,,,,,,,,,,Test/Lures/Guitar_B.wav,1,OLD,,,1,1,0.471,0,47,47,47,1,,
,,,,,,,,,,,,,2,5e4a932344498f4e361fee0d,001,2021-02-20_01h54.31.416,GuessTheSound,2020.2.10,Win32,60,,,,,,,,,,,,,,,Initial/Doubled/Cat_A.wav,3,NEW,,,3,1,0.351,0,48,48,48,1,,
,,,,,,,,,,,,,2,5e4a932344498f4e361fee0d,001,2021-02-20_01h54.31.416,GuessTheSound,2020.2.10,Win32,60,,,,,,,,,,,,,,,Initial/Repeat/Whistle_A.wav,3,NEW,,,3,1,0.387,0,49,49,49,1,,
,,,,,,,,,,,,,2,5e4a932344498f4e361fee0d,001,2021-02-20_01h54.31.416,GuessTheSound,2020.2.10,Win32,60,,,,,,,,,,,,,,,Duck_B.wav,2,SIMILAR,,,2,1,0.303,0,50,50,50,1,,
,,,,,,,,,,,,,2,5e4a932344498f4e361fee0d,001,2021-02-20_01h54.31.416,GuessTheSound,2020.2.10,Win32,60,,,,,,,,,,,,,,,Laugh_D.wav,2,SIMILAR,,,2,1,0.319,0,51,51,51,1,,
,,,,,,,,,,,,,1,5e4a932344498f4e361fee0d,001,2021-02-20_01h54.31.416,GuessTheSound,2020.2.10,Win32,60,,,,,,,,,,,,,,,Initial/Doubled/Chicken_A.wav,1,OLD,,,1,1,0.308,0,52,52,52,1,,
,,,,,,,,,,,,,1,5e4a932344498f4e361fee0d,001,2021-02-20_01h54.31.416,GuessTheSound,2020.2.10,Win32,60,,,,,,,,,,,,,,,Initial/Repeat/Cello.wav,1,OLD,,,1,1,0.588,0,53,53,53,1,,
,,,,,,,,,,,,,2,5e4a932344498f4e361fee0d,001,2021-02-20_01h54.31.416,GuessTheSound,2020.2.10,Win32,60,,,,,,,,,,,,,,,Test/Foils/Slurp.wav,3,NEW,,,3,1,0.507,0,54,54,54,1,,
,,,,,,,,,,,,,2,5e4a932344498f4e361fee0d,001,2021-02-20_01h54.31.416,GuessTheSound,2020.2.10,Win32,60,,,,,,,,,,,,,,,Initial/Doubled/Chomp_A.wav,3,NEW,,,3,1,0.336,0,55,55,55,1,,
,,,,,,,,,,,,,1,5e4a932344498f4e361fee0d,001,2021-02-20_01h54.31.416,GuessTheSound,2020.2.10,Win32,60,,,,,,,,,,,,,,,Initial/Repeat/Airplane_B.wav,1,OLD,,,1,1,0.291,0,56,56,56,1,,
,,,,,,,,,,,,,2,5e4a932344498f4e361fee0d,001,2021-02-20_01h54.31.416,GuessTheSound,2020.2.10,Win32,60,,,,,,,,,,,,,,,Initial/Doubled/Bubbles_A.wav,3,NEW,,,3,1,0.352,0,57,57,57,1,,
,,,,,,,,,,,,,1,5e4a932344498f4e361fee0d,001,2021-02-20_01h54.31.416,GuessTheSound,2020.2.10,Win32,60,,,,,,,,,,,,,,,Initial/Repeat/Trumpet_B.wav,1,OLD,,,1,1,0.29,0,58,58,58,1,,
,,,,,,,,,,,,,2,5e4a932344498f4e361fee0d,001,2021-02-20_01h54.31.416,GuessTheSound,2020.2.10,Win32,60,,,,,,,,,,,,,,,Initial/Repeat/Cup.wav,3,NEW,,,3,1,0.678,0,59,59,59,1,,
,,,,,,,,,,,,,2,5e4a932344498f4e361fee0d,001,2021-02-20_01h54.31.416,GuessTheSound,2020.2.10,Win32,60,,,,,,,,,,,,,,,Snore_C.wav,2,SIMILAR,,,2,1,0.055,0,60,60,60,1,,
,,,,,,,,,,,,,2,5e4a932344498f4e361fee0d,001,2021-02-20_01h54.31.416,GuessTheSound,2020.2.10,Win32,60,,,,,,,,,,,,,,,Test/Foils/Airhorn.wav,3,NEW,,,3,1,0.319,0,61,61,61,1,,
,,,,,,,,,,,,,2,5e4a932344498f4e361fee0d,001,2021-02-20_01h54.31.416,GuessTheSound,2020.2.10,Win32,60,,,,,,,,,,,,,,,Whistle_C.wav,2,SIMILAR,,,2,1,0.709,0,62,62,62,1,,
,,,,,,,,,,,,,1,5e4a932344498f4e361fee0d,001,2021-02-20_01h54.31.416,GuessTheSound,2020.2.10,Win32,60,,,,,,,,,,,,,,,Initial/Repeat/Sneeze_B.wav,1,OLD,,,1,1,0.657,0,63,63,63,1,,
,,,,,,,,,,,,,1,5e4a932344498f4e361fee0d,001,2021-02-20_01h54.31.416,GuessTheSound,2020.2.10,Win32,60,,,,,,,,,,,,,,,Initial/Doubled/Cat_A.wav,1,OLD,,,1,1,0.319,0,64,64,64,1,,
,,,,,,,,,,,,,2,5e4a932344498f4e361fee0d,001,2021-02-20_01h54.31.416,GuessTheSound,2020.2.10,Win32,60,,,,,,,,,,,,,,,Phone_D.wav,3,NEW,,,2,0,0.287,0,65,65,65,1,,
,,,,,,,,,,,,,2,5e4a932344498f4e361fee0d,001,2021-02-20_01h54.31.416,GuessTheSound,2020.2.10,Win32,60,,,,,,,,,,,,,,,Initial/Repeat/Bagpipe.wav,3,NEW,,,1,0,0.273,0,66,66,66,1,,
,,,,,,,,,,,,,2,5e4a932344498f4e361fee0d,001,2021-02-20_01h54.31.416,GuessTheSound,2020.2.10,Win32,60,,,,,,,,,,,,,,,Chomp_C.wav,2,SIMILAR,,,2,1,0.443,0,67,67,67,1,,
,,,,,,,,,,,,,1,5e4a932344498f4e361fee0d,001,2021-02-20_01h54.31.416,GuessTheSound,2020.2.10,Win32,60,,,,,,,,,,,,,,,Test/Foils/Slurp.wav,1,OLD,,,1,1,0.409,0,68,68,68,1,,
,,,,,,,,,,,,,2,5e4a932344498f4e361fee0d,001,2021-02-20_01h54.31.416,GuessTheSound,2020.2.10,Win32,60,,,,,,,,,,,,,,,Test/Foils/Bowlingpins.wav,3,NEW,,,3,1,0.338,0,69,69,69,1,,
,,,,,,,,,,,,,1,5e4a932344498f4e361fee0d,001,2021-02-20_01h54.31.416,GuessTheSound,2020.2.10,Win32,60,,,,,,,,,,,,,,,Initial/Doubled/Bubbles_A.wav,1,OLD,,,1,1,0.002,0,70,70,70,1,,
,,,,,,,,,,,,,2,5e4a932344498f4e361fee0d,001,2021-02-20_01h54.31.416,GuessTheSound,2020.2.10,Win32,60,,,,,,,,,,,,,,,Initial/NoRepeat/Cow.wav,3,NEW,,,3,1,0.585,0,71,71,71,1,,
,,,,,,,,,,,,,2,5e4a932344498f4e361fee0d,001,2021-02-20_01h54.31.416,GuessTheSound,2020.2.10,Win32,60,,,,,,,,,,,,,,,Initial/Doubled/Siren_A.wav,3,NEW,,,3,1,0.306,0,72,72,72,1,,
,,,,,,,,,,,,,2,5e4a932344498f4e361fee0d,001,2021-02-20_01h54.31.416,GuessTheSound,2020.2.10,Win32,60,,,,,,,,,,,,,,,Initial/Repeat/Crow_B.wav,3,NEW,,,3,1,0.537,0,73,73,73,1,,
,,,,,,,,,,,,,1,5e4a932344498f4e361fee0d,001,2021-02-20_01h54.31.416,GuessTheSound,2020.2.10,Win32,60,,,,,,,,,,,,,,,Initial/Repeat/Bagpipe.wav,1,OLD,,,1,1,0.268,0,74,74,74,1,,
,,,,,,,,,,,,,1,5e4a932344498f4e361fee0d,001,2021-02-20_01h54.31.416,GuessTheSound,2020.2.10,Win32,60,,,,,,,,,,,,,,,Initial/Repeat/Cup.wav,1,OLD,,,2,0,0.361,0,75,75,75,1,,
,,,,,,,,,,,,,2,5e4a932344498f4e361fee0d,001,2021-02-20_01h54.31.416,GuessTheSound,2020.2.10,Win32,60,,,,,,,,,,,,,,,Test/Foils/Bullfrog.wav,3,NEW,,,3,1,0.587,0,76,76,76,1,,
,,,,,,,,,,,,,2,5e4a932344498f4e361fee0d,001,2021-02-20_01h54.31.416,GuessTheSound,2020.2.10,Win32,60,,,,,,,,,,,,,,,Initial/Repeat/Phone_A.wav,2,SIMILAR,,,2,1,0.308,0,77,77,77,1,,
,,,,,,,,,,,,,2,5e4a932344498f4e361fee0d,001,2021-02-20_01h54.31.416,GuessTheSound,2020.2.10,Win32,60,,,,,,,,,,,,,,,Initial/Doubled/HairDryer_A.wav,3,NEW,,,1,0,0.367,0,78,78,78,1,,
,,,,,,,,,,,,,1,5e4a932344498f4e361fee0d,001,2021-02-20_01h54.31.416,GuessTheSound,2020.2.10,Win32,60,,,,,,,,,,,,,,,Test/Foils/Airhorn.wav,1,OLD,,,1,1,0.307,0,79,79,79,1,,
,,,,,,,,,,,,,2,5e4a932344498f4e361fee0d,001,2021-02-20_01h54.31.416,GuessTheSound,2020.2.10,Win32,60,,,,,,,,,,,,,,,Initial/Doubled/Cuckoo_A.wav,3,NEW,,,3,1,0.52,0,80,80,80,1,,
,,,,,,,,,,,,,1,5e4a932344498f4e361fee0d,001,2021-02-20_01h54.31.416,GuessTheSound,2020.2.10,Win32,60,,,,,,,,,,,,,,,Initial/NoRepeat/Cow.wav,1,OLD,,,2,0,0.344,0,81,81,81,1,,
,,,,,,,,,,,,,2,5e4a932344498f4e361fee0d,001,2021-02-20_01h54.31.416,GuessTheSound,2020.2.10,Win32,60,,,,,,,,,,,,,,,Initial/NoRepeat/Hammer_A.wav,3,NEW,,,3,1,0.4,0,82,82,82,1,,
,,,,,,,,,,,,,2,5e4a932344498f4e361fee0d,001,2021-02-20_01h54.31.416,GuessTheSound,2020.2.10,Win32,60,,,,,,,,,,,,,,,Initial/NoRepeat/Footsteps_B.wav,3,NEW,,,3,1,0.283,0,83,83,83,1,,
,,,,,,,,,,,,,2,5e4a932344498f4e361fee0d,001,2021-02-20_01h54.31.416,GuessTheSound,2020.2.10,Win32,60,,,,,,,,,,,,,,,Initial/Doubled/Dog_A.wav,3,NEW,,,3,1,0.337,0,84,84,84,1,,
,,,,,,,,,,,,,1,5e4a932344498f4e361fee0d,001,2021-02-20_01h54.31.416,GuessTheSound,2020.2.10,Win32,60,,,,,,,,,,,,,,,Test/Foils/Bowlingpins.wav,1,OLD,,,1,1,0.275,0,85,85,85,1,,
,,,,,,,,,,,,,2,5e4a932344498f4e361fee0d,001,2021-02-20_01h54.31.416,GuessTheSound,2020.2.10,Win32,60,,,,,,,,,,,,,,,Initial/Doubled/Clap_A.wav,3,NEW,,,3,1,0.39,0,86,86,86,1,,
,,,,,,,,,,,,,2,5e4a932344498f4e361fee0d,001,2021-02-20_01h54.31.416,GuessTheSound,2020.2.10,Win32,60,,,,,,,,,,,,,,,Initial/NoRepeat/Fireworks.wav,3,NEW,,,3,1,0.374,0,87,87,87,1,,
,,,,,,,,,,,,,1,5e4a932344498f4e361fee0d,001,2021-02-20_01h54.31.416,GuessTheSound,2020.2.10,Win32,60,,,,,,,,,,,,,,,Test/Foils/Bullfrog.wav,1,OLD,,,1,1,0.306,0,88,88,88,1,,
,,,,,,,,,,,,,2,5e4a932344498f4e361fee0d,001,2021-02-20_01h54.31.416,GuessTheSound,2020.2.10,Win32,60,,,,,,,,,,,,,,,Siren_C.wav,2,SIMILAR,,,2,1,0.268,0,89,89,89,1,,
,,,,,,,,,,,,,2,5e4a932344498f4e361fee0d,001,2021-02-20_01h54.31.416,GuessTheSound,2020.2.10,Win32,60,,,,,,,,,,,,,,,Crow_A.wav,2,SIMILAR,,,2,1,0.22,0,90,90,90,1,,
,,,,,,,,,,,,,2,5e4a932344498f4e361fee0d,001,2021-02-20_01h54.31.416,GuessTheSound,2020.2.10,Win32,60,,,,,,,,,,,,,,,Initial/NoRepeat/Goat_B.wav,3,NEW,,,3,1,0.304,0,91,91,91,1,,
,,,,,,,,,,,,,1,5e4a932344498f4e361fee0d,001,2021-02-20_01h54.31.416,GuessTheSound,2020.2.10,Win32,60,,,,,,,,,,,,,,,Initial/Doubled/HairDryer_A.wav,1,OLD,,,1,1,0.503,0,92,92,92,1,,
,,,,,,,,,,,,,1,5e4a932344498f4e361fee0d,001,2021-02-20_01h54.31.416,GuessTheSound,2020.2.10,Win32,60,,,,,,,,,,,,,,,Initial/Doubled/Cuckoo_A.wav,1,OLD,,,1,1,0.327,0,93,93,93,1,,
,,,,,,,,,,,,,2,5e4a932344498f4e361fee0d,001,2021-02-20_01h54.31.416,GuessTheSound,2020.2.10,Win32,60,,,,,,,,,,,,,,,Initial/Doubled/Coin_A.wav,3,NEW,,,3,1,0.303,0,94,94,94,1,,
,,,,,,,,,,,,,2,5e4a932344498f4e361fee0d,001,2021-02-20_01h54.31.416,GuessTheSound,2020.2.10,Win32,60,,,,,,,,,,,,,,,Initial/Repeat/Howl.wav,3,NEW,,,3,1,0.552,0,95,95,95,1,,
,,,,,,,,,,,,,1,5e4a932344498f4e361fee0d,001,2021-02-20_01h54.31.416,GuessTheSound,2020.2.10,Win32,60,,,,,,,,,,,,,,,Initial/NoRepeat/Hammer_A.wav,1,OLD,,,1,1,0.334,0,96,96,96,1,,
,,,,,,,,,,,,,2,5e4a932344498f4e361fee0d,001,2021-02-20_01h54.31.416,GuessTheSound,2020.2.10,Win32,60,,,,,,,,,,,,,,,Initial/NoRepeat/Helicopter_A.wav,3,NEW,,,3,1,0.592,0,97,97,97,1,,
,,,,,,,,,,,,,2,5e4a932344498f4e361fee0d,001,2021-02-20_01h54.31.416,GuessTheSound,2020.2.10,Win32,60,,,,,,,,,,,,,,,Initial/Repeat/ManWhistle.wav,3,NEW,,,3,1,0.54,0,98,98,98,1,,
,,,,,,,,,,,,,2,5e4a932344498f4e361fee0d,001,2021-02-20_01h54.31.416,GuessTheSound,2020.2.10,Win32,60,,,,,,,,,,,,,,,Footsteps_C.wav,2,SIMILAR,,,2,1,0.267,0,99,99,99,1,,
,,,,,,,,,,,,,2,5e4a932344498f4e361fee0d,001,2021-02-20_01h54.31.416,GuessTheSound,2020.2.10,Win32,60,,,,,,,,,,,,,,,Initial/Doubled/Growl_A.wav,3,NEW,,,3,1,0.321,0,100,100,100,1,,
,,,,,,,,,,,,,2,5e4a932344498f4e361fee0d,001,2021-02-20_01h54.31.416,GuessTheSound,2020.2.10,Win32,60,,,,,,,,,,,,,,,Test/Foils/Horse.wav,3,NEW,,,2,0,0.26,0,101,101,101,1,,
,,,,,,,,,,,,,1,5e4a932344498f4e361fee0d,001,2021-02-20_01h54.31.416,GuessTheSound,2020.2.10,Win32,60,,,,,,,,,,,,,,,Initial/Doubled/Clap_A.wav,1,OLD,,,2,0,0.527,0,102,102,102,1,,
,,,,,,,,,,,,,2,5e4a932344498f4e361fee0d,001,2021-02-20_01h54.31.416,GuessTheSound,2020.2.10,Win32,60,,,,,,,,,,,,,,,Dog_C.wav,2,SIMILAR,,,2,1,0.738,0,103,103,103,1,,
,,,,,,,,,,,,,1,5e4a932344498f4e361fee0d,001,2021-02-20_01h54.31.416,GuessTheSound,2020.2.10,Win32,60,,,,,,,,,,,,,,,Initial/NoRepeat/Fireworks.wav,1,OLD,,,2,0,0.267,0,104,104,104,1,,
,,,,,,,,,,,,,2,5e4a932344498f4e361fee0d,001,2021-02-20_01h54.31.416,GuessTheSound,2020.2.10,Win32,60,,,,,,,,,,,,,,,Initial/Repeat/Printer.wav,3,NEW,,,3,1,0.271,0,105,105,105,1,,
,,,,,,,,,,,,,2,5e4a932344498f4e361fee0d,001,2021-02-20_01h54.31.416,GuessTheSound,2020.2.10,Win32,60,,,,,,,,,,,,,,,Test/Foils/Camera.wav,3,NEW,,,3,1,0.722,0,106,106,106,1,,
,,,,,,,,,,,,,2,5e4a932344498f4e361fee0d,001,2021-02-20_01h54.31.416,GuessTheSound,2020.2.10,Win32,60,,,,,,,,,,,,,,,Initial/Doubled/Piano_A.wav,3,NEW,,,3,1,0.522,0,107,107,107,1,,
,,,,,,,,,,,,,2,5e4a932344498f4e361fee0d,001,2021-02-20_01h54.31.416,GuessTheSound,2020.2.10,Win32,60,,,,,,,,,,,,,,,Initial/Repeat/PaperRip.wav,3,NEW,,,3,1,0.619,0,108,108,108,1,,
,,,,,,,,,,,,,2,5e4a932344498f4e361fee0d,001,2021-02-20_01h54.31.416,GuessTheSound,2020.2.10,Win32,60,,,,,,,,,,,,,,,Coin_B.wav,2,SIMILAR,,,2,1,0.193,0,109,109,109,1,,
,,,,,,,,,,,,,2,5e4a932344498f4e361fee0d,001,2021-02-20_01h54.31.416,GuessTheSound,2020.2.10,Win32,60,,,,,,,,,,,,,,,Initial/NoRepeat/Droplet_B.wav,3,NEW,,,3,1,0.301,0,110,110,110,1,,
,,,,,,,,,,,,,2,5e4a932344498f4e361fee0d,001,2021-02-20_01h54.31.416,GuessTheSound,2020.2.10,Win32,60,,,,,,,,,,,,,,,Test/Foils/Steam.wav,3,NEW,,,3,1,0.069,0,111,111,111,1,,
,,,,,,,,,,,,,1,5e4a932344498f4e361fee0d,001,2021-02-20_01h54.31.416,GuessTheSound,2020.2.10,Win32,60,,,,,,,,,,,,,,,Initial/NoRepeat/Helicopter_A.wav,1,OLD,,,1,1,3.158,0,112,112,112,1,,
,,,,,,,,,,,,,2,5e4a932344498f4e361fee0d,001,2021-02-20_01h54.31.416,GuessTheSound,2020.2.10,Win32,60,,,,,,,,,,,,,,,CarStart_D.wav,3,NEW,,,3,1,0.193,0,113,113,113,1,,
,,,,,,,,,,,,,1,5e4a932344498f4e361fee0d,001,2021-02-20_01h54.31.416,GuessTheSound,2020.2.10,Win32,60,,,,,,,,,,,,,,,Initial/Repeat/Howl.wav,1,OLD,,,1,1,0.003,0,114,114,114,1,,
,,,,,,,,,,,,,2,5e4a932344498f4e361fee0d,001,2021-02-20_01h54.31.416,GuessTheSound,2020.2.10,Win32,60,,,,,,,,,,,,,,,Growl_B.wav,2,SIMILAR,,,2,1,0.061,0,115,115,115,1,,
,,,,,,,,,,,,,2,5e4a932344498f4e361fee0d,001,2021-02-20_01h54.31.416,GuessTheSound,2020.2.10,Win32,60,,,,,,,,,,,,,,,Goat_C.wav,2,SIMILAR,,,2,1,1.158,0,116,116,116,1,,
,,,,,,,,,,,,,2,5e4a932344498f4e361fee0d,001,2021-02-20_01h54.31.416,GuessTheSound,2020.2.10,Win32,60,,,,,,,,,,,,,,,Test/Foils/Donkey.wav,3,NEW,,,3,1,0.271,0,117,117,117,1,,
,,,,,,,,,,,,,1,5e4a932344498f4e361fee0d,001,2021-02-20_01h54.31.416,GuessTheSound,2020.2.10,Win32,60,,,,,,,,,,,,,,,Initial/Repeat/PaperRip.wav,1,OLD,,,2,0,0.305,0,118,118,118,1,,
,,,,,,,,,,,,,2,5e4a932344498f4e361fee0d,001,2021-02-20_01h54.31.416,GuessTheSound,2020.2.10,Win32,60,,,,,,,,,,,,,,,ManWhistle_D.wav,2,SIMILAR,,,1,0,0.444,0,119,119,119,1,,
,,,,,,,,,,,,,1,5e4a932344498f4e361fee0d,001,2021-02-20_01h54.31.416,GuessTheSound,2020.2.10,Win32,60,,,,,,,,,,,,,,,Test/Foils/Horse.wav,1,OLD,,,1,1,0.301,0,120,120,120,1,,
,,,,,,,,,,,,,1,5e4a932344498f4e361fee0d,001,2021-02-20_01h54.31.416,GuessTheSound,2020.2.10,Win32,60,,,,,,,,,,,,,,,Initial/Repeat/Printer.wav,1,OLD,,,1,1,0.234,0,121,121,121,1,,
,,,,,,,,,,,,,1,5e4a932344498f4e361fee0d,001,2021-02-20_01h54.31.416,GuessTheSound,2020.2.10,Win32,60,,,,,,,,,,,,,,,Test/Foils/Camera.wav,1,OLD,,,1,1,0.32,0,122,122,122,1,,
,,,,,,,,,,,,,1,5e4a932344498f4e361fee0d,001,2021-02-20_01h54.31.416,GuessTheSound,2020.2.10,Win32,60,,,,,,,,,,,,,,,Initial/NoRepeat/Droplet_B.wav,1,OLD,,,1,1,0.303,0,123,123,123,1,,
,,,,,,,,,,,,,1,5e4a932344498f4e361fee0d,001,2021-02-20_01h54.31.416,GuessTheSound,2020.2.10,Win32,60,,,,,,,,,,,,,,,Test/Foils/Steam.wav,1,OLD,,,1,1,0.288,0,124,124,124,1,,
,,,,,,,,,,,,,2,5e4a932344498f4e361fee0d,001,2021-02-20_01h54.31.416,GuessTheSound,2020.2.10,Win32,60,,,,,,,,,,,,,,,Initial/Doubled/CarStart_A.wav,2,SIMILAR,,,2,1,0.27,0,125,125,125,1,,
,,,,,,,,,,,,,1,5e4a932344498f4e361fee0d,001,2021-02-20_01h54.31.416,GuessTheSound,2020.2.10,Win32,60,,,,,,,,,,,,,,,Test/Foils/Donkey.wav,1,OLD,,,1,1,0.555,0,126,126,126,1,,
,,,,,,,,,,,,,2,5e4a932344498f4e361fee0d,001,2021-02-20_01h54.31.416,GuessTheSound,2020.2.10,Win32,60,,,,,,,,,,,,,,,Piano_D.wav,2,SIMILAR,,,2,1,0.284,0,127,127,127,1,,
,,,,,,,,,,,,,,5e4a932344498f4e361fee0d,001,2021-02-20_01h54.31.416,GuessTheSound,2020.2.10,Win32,60,,,,,,,,,,,,,,,,,,,,,,,,,,,,space,11.141
