VolumeContinueKey.keys,VolumeContinueKey.rt,HeadphoneContinueKey.keys,HeadphoneContinueKey.rt,CheckResp.keys,CheckResp.corr,CheckResp.rt,trials_2.thisRepN,trials_2.thisTrialN,trials_2.thisN,trials_2.thisIndex,trials_2.ran,File,Correct,participant,date,expName,psychopyVersion,OS,frameRate,key_resp_2.keys,key_resp_2.rt,key_resp_3.keys,key_resp_3.rt,WelcomeContinueKey2.keys,WelcomeContinueKey2.rt,Practice_resp.keys,Practice_resp.corr,Practice_resp.rt,PracticeLoop.thisRepN,PracticeLoop.thisTrialN,PracticeLoop.thisN,PracticeLoop.thisIndex,PracticeLoop.ran,SoundFile,SoundCorrect,Correct2,SoundType,Trial,StartTast.keys,StartTast.rt,key_resp.keys,key_resp.corr,key_resp.rt,trials.thisRepN,trials.thisTrialN,trials.thisN,trials.thisIndex,trials.ran,ExitKey.keys,ExitKey.rt
space,7.110385,space,83.640095,1,1,1.89709,0,0,0,1,1,Headphone/t1_2.wav,1,5f4fa3bf5e8dec0806153507,2021-03-21_17h06.01.549,GuessTheSound,2020.2.10,Win32,60,,,,,,,,,,,,,,,,,,,,,,,,,,,,,,,
,,,,1,1,1.040465,0,1,1,0,1,Headphone/t1_1.wav,1,5f4fa3bf5e8dec0806153507,2021-03-21_17h06.01.549,GuessTheSound,2020.2.10,Win32,60,,,,,,,,,,,,,,,,,,,,,,,,,,,,,,,
,,,,2,1,2.034755,0,2,2,3,1,Headphone/t2_2.wav,2,5f4fa3bf5e8dec0806153507,2021-03-21_17h06.01.549,GuessTheSound,2020.2.10,Win32,60,,,,,,,,,,,,,,,,,,,,,,,,,,,,,,,
,,,,2,1,4.63528,0,3,3,2,1,Headphone/t2_1.wav,2,5f4fa3bf5e8dec0806153507,2021-03-21_17h06.01.549,GuessTheSound,2020.2.10,Win32,60,,,,,,,,,,,,,,,,,,,,,,,,,,,,,,,
,,,,3,1,0.73177,0,4,4,4,1,Headphone/t3_1.wav,3,5f4fa3bf5e8dec0806153507,2021-03-21_17h06.01.549,GuessTheSound,2020.2.10,Win32,60,,,,,,,,,,,,,,,,,,,,,,,,,,,,,,,
,,,,3,1,0.75175,0,5,5,5,1,Headphone/t3_2.wav,3,5f4fa3bf5e8dec0806153507,2021-03-21_17h06.01.549,GuessTheSound,2020.2.10,Win32,60,,,,,,,,,,,,,,,,,,,,,,,,,,,,,,,
,,,,,,,,,,,,,,5f4fa3bf5e8dec0806153507,2021-03-21_17h06.01.549,GuessTheSound,2020.2.10,Win32,60,space,41.57359,space,12.573625,space,5.40322,2,1,7.28825,0,0,0,0,1,Practice/Seagull_A.wav,2,3,NEW,Practice,,,,,,,,,,,,
,,,,,,,,,,,,,,5f4fa3bf5e8dec0806153507,2021-03-21_17h06.01.549,GuessTheSound,2020.2.10,Win32,60,,,,,,,2,1,22.641375,0,1,1,1,1,Practice/Skid_B.wav,2,3,NEW,Practice,,,,,,,,,,,,
,,,,,,,,,,,,,,5f4fa3bf5e8dec0806153507,2021-03-21_17h06.01.549,GuessTheSound,2020.2.10,Win32,60,,,,,,,1,1,3.268275,0,2,2,2,1,Practice/Seagull_A.wav,1,1,OLD,Practice,,,,,,,,,,,,
,,,,,,,,,,,,,,5f4fa3bf5e8dec0806153507,2021-03-21_17h06.01.549,GuessTheSound,2020.2.10,Win32,60,,,,,,,2,1,0.98955,0,3,3,3,1,Practice/Gargle_A.wav,2,3,NEW,Practice,,,,,,,,,,,,
,,,,,,,,,,,,,,5f4fa3bf5e8dec0806153507,2021-03-21_17h06.01.549,GuessTheSound,2020.2.10,Win32,60,,,,,,,2,1,6.555225,0,4,4,4,1,Practice/Gargle_B.wav,2,2,SIMILAR,Practice,,,,,,,,,,,,
,,,,,,,,,,,,,,5f4fa3bf5e8dec0806153507,2021-03-21_17h06.01.549,GuessTheSound,2020.2.10,Win32,60,,,,,,,,,,,,,,,SoundMST/CarStart_E.wav,2,3,NEW,C,space,17.735555,2,1,1.66495,0,0,0,0,1,,
,,,,,,,,,,,,,,5f4fa3bf5e8dec0806153507,2021-03-21_17h06.01.549,GuessTheSound,2020.2.10,Win32,60,,,,,,,,,,,,,,,SoundMST/Bird_E.wav,2,3,NEW,C,,,2,1,1.4223,0,1,1,1,1,,
,,,,,,,,,,,,,,5f4fa3bf5e8dec0806153507,2021-03-21_17h06.01.549,GuessTheSound,2020.2.10,Win32,60,,,,,,,,,,,,,,,SoundMST/Bubbles_A.wav,2,3,NEW,C,,,2,1,0.961645,0,2,2,2,1,,
,,,,,,,,,,,,,,5f4fa3bf5e8dec0806153507,2021-03-21_17h06.01.549,GuessTheSound,2020.2.10,Win32,60,,,,,,,,,,,,,,,SoundMST/Horse.wav,2,3,NEW,C,,,2,1,0.63949,0,3,3,3,1,,
,,,,,,,,,,,,,,5f4fa3bf5e8dec0806153507,2021-03-21_17h06.01.549,GuessTheSound,2020.2.10,Win32,60,,,,,,,,,,,,,,,SoundMST/IceDrop.wav,2,3,NEW,C,,,2,1,3.433055,0,4,4,4,1,,
,,,,,,,,,,,,,,5f4fa3bf5e8dec0806153507,2021-03-21_17h06.01.549,GuessTheSound,2020.2.10,Win32,60,,,,,,,,,,,,,,,SoundMST/Sleighbells_B.wav,2,3,NEW,C,,,2,1,1.007345,0,5,5,5,1,,
,,,,,,,,,,,,,,5f4fa3bf5e8dec0806153507,2021-03-21_17h06.01.549,GuessTheSound,2020.2.10,Win32,60,,,,,,,,,,,,,,,SoundMST/Growl_G.wav,2,3,NEW,C,,,2,1,0.46029,0,6,6,6,1,,
,,,,,,,,,,,,,,5f4fa3bf5e8dec0806153507,2021-03-21_17h06.01.549,GuessTheSound,2020.2.10,Win32,60,,,,,,,,,,,,,,,SoundMST/Chicken_A.wav,2,3,NEW,C,,,2,1,0.80376,0,7,7,7,1,,
,,,,,,,,,,,,,,5f4fa3bf5e8dec0806153507,2021-03-21_17h06.01.549,GuessTheSound,2020.2.10,Win32,60,,,,,,,,,,,,,,,SoundMST/Slurp.wav,2,3,NEW,C,,,2,1,0.722745,0,8,8,8,1,,
,,,,,,,,,,,,,,5f4fa3bf5e8dec0806153507,2021-03-21_17h06.01.549,GuessTheSound,2020.2.10,Win32,60,,,,,,,,,,,,,,,SoundMST/CarStart_A.wav,2,2,SIMILAR,C,,,2,1,0.66718,0,9,9,9,1,,
,,,,,,,,,,,,,,5f4fa3bf5e8dec0806153507,2021-03-21_17h06.01.549,GuessTheSound,2020.2.10,Win32,60,,,,,,,,,,,,,,,SoundMST/Printer.wav,2,3,NEW,C,,,2,1,0.74083,0,10,10,10,1,,
,,,,,,,,,,,,,,5f4fa3bf5e8dec0806153507,2021-03-21_17h06.01.549,GuessTheSound,2020.2.10,Win32,60,,,,,,,,,,,,,,,SoundMST/Bowlingpins.wav,2,3,NEW,C,,,2,1,0.254355,0,11,11,11,1,,
,,,,,,,,,,,,,,5f4fa3bf5e8dec0806153507,2021-03-21_17h06.01.549,GuessTheSound,2020.2.10,Win32,60,,,,,,,,,,,,,,,SoundMST/Fireworks.wav,2,3,NEW,C,,,2,1,0.69909,0,12,12,12,1,,
,,,,,,,,,,,,,,5f4fa3bf5e8dec0806153507,2021-03-21_17h06.01.549,GuessTheSound,2020.2.10,Win32,60,,,,,,,,,,,,,,,SoundMST/Howl.wav,2,3,NEW,C,,,2,1,0.368135,0,13,13,13,1,,
,,,,,,,,,,,,,,5f4fa3bf5e8dec0806153507,2021-03-21_17h06.01.549,GuessTheSound,2020.2.10,Win32,60,,,,,,,,,,,,,,,SoundMST/Goat_B.wav,2,3,NEW,C,,,2,1,0.6746,0,14,14,14,1,,
,,,,,,,,,,,,,,5f4fa3bf5e8dec0806153507,2021-03-21_17h06.01.549,GuessTheSound,2020.2.10,Win32,60,,,,,,,,,,,,,,,SoundMST/Horse.wav,1,1,OLD,C,,,2,0,1.33409,0,15,15,15,1,,
,,,,,,,,,,,,,,5f4fa3bf5e8dec0806153507,2021-03-21_17h06.01.549,GuessTheSound,2020.2.10,Win32,60,,,,,,,,,,,,,,,SoundMST/Laugh_A.wav,2,3,NEW,C,,,2,1,0.458455,0,16,16,16,1,,
,,,,,,,,,,,,,,5f4fa3bf5e8dec0806153507,2021-03-21_17h06.01.549,GuessTheSound,2020.2.10,Win32,60,,,,,,,,,,,,,,,SoundMST/Bubbles_B.wav,2,2,SIMILAR,C,,,1,0,0.51833,0,17,17,17,1,,
,,,,,,,,,,,,,,5f4fa3bf5e8dec0806153507,2021-03-21_17h06.01.549,GuessTheSound,2020.2.10,Win32,60,,,,,,,,,,,,,,,SoundMST/Footsteps_C.wav,2,3,NEW,C,,,2,1,0.751705,0,18,18,18,1,,
,,,,,,,,,,,,,,5f4fa3bf5e8dec0806153507,2021-03-21_17h06.01.549,GuessTheSound,2020.2.10,Win32,60,,,,,,,,,,,,,,,SoundMST/Duck_A.wav,2,3,NEW,C,,,2,1,0.570195,0,19,19,19,1,,
,,,,,,,,,,,,,,5f4fa3bf5e8dec0806153507,2021-03-21_17h06.01.549,GuessTheSound,2020.2.10,Win32,60,,,,,,,,,,,,,,,SoundMST/Cow.wav,2,3,NEW,C,,,2,1,0.9189,0,20,20,20,1,,
,,,,,,,,,,,,,,5f4fa3bf5e8dec0806153507,2021-03-21_17h06.01.549,GuessTheSound,2020.2.10,Win32,60,,,,,,,,,,,,,,,SoundMST/Airhorn.wav,2,3,NEW,C,,,2,1,0.701255,0,21,21,21,1,,
,,,,,,,,,,,,,,5f4fa3bf5e8dec0806153507,2021-03-21_17h06.01.549,GuessTheSound,2020.2.10,Win32,60,,,,,,,,,,,,,,,SoundMST/Printer.wav,1,1,OLD,C,,,1,1,0.48736,0,22,22,22,1,,
,,,,,,,,,,,,,,5f4fa3bf5e8dec0806153507,2021-03-21_17h06.01.549,GuessTheSound,2020.2.10,Win32,60,,,,,,,,,,,,,,,SoundMST/Sleighbells_B.wav,1,1,OLD,C,,,1,1,0.309135,0,23,23,23,1,,
,,,,,,,,,,,,,,5f4fa3bf5e8dec0806153507,2021-03-21_17h06.01.549,GuessTheSound,2020.2.10,Win32,60,,,,,,,,,,,,,,,SoundMST/Camera.wav,2,3,NEW,C,,,2,1,0.55507,0,24,24,24,1,,
,,,,,,,,,,,,,,5f4fa3bf5e8dec0806153507,2021-03-21_17h06.01.549,GuessTheSound,2020.2.10,Win32,60,,,,,,,,,,,,,,,SoundMST/Growl_H.wav,2,2,SIMILAR,C,,,1,0,3.033115,0,25,25,25,1,,
,,,,,,,,,,,,,,5f4fa3bf5e8dec0806153507,2021-03-21_17h06.01.549,GuessTheSound,2020.2.10,Win32,60,,,,,,,,,,,,,,,SoundMST/Whistle_B.wav,2,3,NEW,C,,,2,1,0.408225,0,26,26,26,1,,
,,,,,,,,,,,,,,5f4fa3bf5e8dec0806153507,2021-03-21_17h06.01.549,GuessTheSound,2020.2.10,Win32,60,,,,,,,,,,,,,,,SoundMST/Piano_D.wav,2,3,NEW,C,,,2,1,0.55093,0,27,27,27,1,,
,,,,,,,,,,,,,,5f4fa3bf5e8dec0806153507,2021-03-21_17h06.01.549,GuessTheSound,2020.2.10,Win32,60,,,,,,,,,,,,,,,SoundMST/Coin_D.wav,2,3,NEW,C,,,2,1,1.19644,0,28,28,28,1,,
,,,,,,,,,,,,,,5f4fa3bf5e8dec0806153507,2021-03-21_17h06.01.549,GuessTheSound,2020.2.10,Win32,60,,,,,,,,,,,,,,,SoundMST/Bird_A.wav,2,2,SIMILAR,C,,,2,1,0.9186,0,29,29,29,1,,
,,,,,,,,,,,,,,5f4fa3bf5e8dec0806153507,2021-03-21_17h06.01.549,GuessTheSound,2020.2.10,Win32,60,,,,,,,,,,,,,,,SoundMST/PaperRip.wav,2,3,NEW,C,,,2,1,0.612885,0,30,30,30,1,,
,,,,,,,,,,,,,,5f4fa3bf5e8dec0806153507,2021-03-21_17h06.01.549,GuessTheSound,2020.2.10,Win32,60,,,,,,,,,,,,,,,SoundMST/Slurp.wav,1,1,OLD,C,,,1,1,0.336775,0,31,31,31,1,,
,,,,,,,,,,,,,,5f4fa3bf5e8dec0806153507,2021-03-21_17h06.01.549,GuessTheSound,2020.2.10,Win32,60,,,,,,,,,,,,,,,SoundMST/Howl.wav,1,1,OLD,C,,,1,1,0.344845,0,32,32,32,1,,
,,,,,,,,,,,,,,5f4fa3bf5e8dec0806153507,2021-03-21_17h06.01.549,GuessTheSound,2020.2.10,Win32,60,,,,,,,,,,,,,,,SoundMST/IceDrop.wav,1,1,OLD,C,,,1,1,0.759845,0,33,33,33,1,,
,,,,,,,,,,,,,,5f4fa3bf5e8dec0806153507,2021-03-21_17h06.01.549,GuessTheSound,2020.2.10,Win32,60,,,,,,,,,,,,,,,SoundMST/Pour_B.wav,2,3,NEW,C,,,2,1,0.451025,0,34,34,34,1,,
,,,,,,,,,,,,,,5f4fa3bf5e8dec0806153507,2021-03-21_17h06.01.549,GuessTheSound,2020.2.10,Win32,60,,,,,,,,,,,,,,,SoundMST/Fireworks.wav,1,1,OLD,C,,,1,1,0.37591,0,35,35,35,1,,
,,,,,,,,,,,,,,5f4fa3bf5e8dec0806153507,2021-03-21_17h06.01.549,GuessTheSound,2020.2.10,Win32,60,,,,,,,,,,,,,,,SoundMST/Footsteps_F.wav,2,2,SIMILAR,C,,,2,1,0.59573,0,36,36,36,1,,
,,,,,,,,,,,,,,5f4fa3bf5e8dec0806153507,2021-03-21_17h06.01.549,GuessTheSound,2020.2.10,Win32,60,,,,,,,,,,,,,,,SoundMST/Chicken_A.wav,1,1,OLD,C,,,1,1,0.78542,0,37,37,37,1,,
,,,,,,,,,,,,,,5f4fa3bf5e8dec0806153507,2021-03-21_17h06.01.549,GuessTheSound,2020.2.10,Win32,60,,,,,,,,,,,,,,,SoundMST/Bullfrog.wav,2,3,NEW,C,,,1,0,0.480335,0,38,38,38,1,,
,,,,,,,,,,,,,,5f4fa3bf5e8dec0806153507,2021-03-21_17h06.01.549,GuessTheSound,2020.2.10,Win32,60,,,,,,,,,,,,,,,SoundMST/Bowlingpins.wav,1,1,OLD,C,,,1,1,0.31664,0,39,39,39,1,,
,,,,,,,,,,,,,,5f4fa3bf5e8dec0806153507,2021-03-21_17h06.01.549,GuessTheSound,2020.2.10,Win32,60,,,,,,,,,,,,,,,SoundMST/Helicopter_A.wav,2,3,NEW,C,,,2,1,0.324295,0,40,40,40,1,,
,,,,,,,,,,,,,,5f4fa3bf5e8dec0806153507,2021-03-21_17h06.01.549,GuessTheSound,2020.2.10,Win32,60,,,,,,,,,,,,,,,SoundMST/Goat_C.wav,2,2,SIMILAR,C,,,1,0,0.459225,0,41,41,41,1,,
,,,,,,,,,,,,,,5f4fa3bf5e8dec0806153507,2021-03-21_17h06.01.549,GuessTheSound,2020.2.10,Win32,60,,,,,,,,,,,,,,,SoundMST/HairDryer_A.wav,2,3,NEW,C,,,2,1,0.284965,0,42,42,42,1,,
,,,,,,,,,,,,,,5f4fa3bf5e8dec0806153507,2021-03-21_17h06.01.549,GuessTheSound,2020.2.10,Win32,60,,,,,,,,,,,,,,,SoundMST/Duck_B.wav,2,2,SIMILAR,C,,,1,0,0.490285,0,43,43,43,1,,
,,,,,,,,,,,,,,5f4fa3bf5e8dec0806153507,2021-03-21_17h06.01.549,GuessTheSound,2020.2.10,Win32,60,,,,,,,,,,,,,,,SoundMST/PaperRip.wav,1,1,OLD,C,,,1,1,0.312735,0,44,44,44,1,,
,,,,,,,,,,,,,,5f4fa3bf5e8dec0806153507,2021-03-21_17h06.01.549,GuessTheSound,2020.2.10,Win32,60,,,,,,,,,,,,,,,SoundMST/Dog_H.wav,2,3,NEW,C,,,2,1,0.30551,0,45,45,45,1,,
,,,,,,,,,,,,,,5f4fa3bf5e8dec0806153507,2021-03-21_17h06.01.549,GuessTheSound,2020.2.10,Win32,60,,,,,,,,,,,,,,,SoundMST/Camera.wav,1,1,OLD,C,,,1,1,0.38935,0,46,46,46,1,,
,,,,,,,,,,,,,,5f4fa3bf5e8dec0806153507,2021-03-21_17h06.01.549,GuessTheSound,2020.2.10,Win32,60,,,,,,,,,,,,,,,SoundMST/Laugh_D.wav,2,2,SIMILAR,C,,,1,0,0.833895,0,47,47,47,1,,
,,,,,,,,,,,,,,5f4fa3bf5e8dec0806153507,2021-03-21_17h06.01.549,GuessTheSound,2020.2.10,Win32,60,,,,,,,,,,,,,,,SoundMST/Sneeze_B.wav,2,3,NEW,C,,,2,1,0.368845,0,48,48,48,1,,
,,,,,,,,,,,,,,5f4fa3bf5e8dec0806153507,2021-03-21_17h06.01.549,GuessTheSound,2020.2.10,Win32,60,,,,,,,,,,,,,,,SoundMST/Cow.wav,1,1,OLD,C,,,1,1,0.285125,0,49,49,49,1,,
,,,,,,,,,,,,,,5f4fa3bf5e8dec0806153507,2021-03-21_17h06.01.549,GuessTheSound,2020.2.10,Win32,60,,,,,,,,,,,,,,,SoundMST/Donkey.wav,2,3,NEW,C,,,2,1,1.085155,0,50,50,50,1,,
,,,,,,,,,,,,,,5f4fa3bf5e8dec0806153507,2021-03-21_17h06.01.549,GuessTheSound,2020.2.10,Win32,60,,,,,,,,,,,,,,,SoundMST/Coin_E.wav,2,2,SIMILAR,C,,,1,0,0.323005,0,51,51,51,1,,
,,,,,,,,,,,,,,5f4fa3bf5e8dec0806153507,2021-03-21_17h06.01.549,GuessTheSound,2020.2.10,Win32,60,,,,,,,,,,,,,,,SoundMST/Buzz.wav,2,3,NEW,C,,,2,1,0.415175,0,52,52,52,1,,
,,,,,,,,,,,,,,5f4fa3bf5e8dec0806153507,2021-03-21_17h06.01.549,GuessTheSound,2020.2.10,Win32,60,,,,,,,,,,,,,,,SoundMST/Piano_D.wav,1,1,OLD,C,,,1,1,0.618225,0,53,53,53,1,,
,,,,,,,,,,,,,,5f4fa3bf5e8dec0806153507,2021-03-21_17h06.01.549,GuessTheSound,2020.2.10,Win32,60,,,,,,,,,,,,,,,SoundMST/Hammer_A.wav,2,3,NEW,C,,,2,1,0.55325,0,54,54,54,1,,
,,,,,,,,,,,,,,5f4fa3bf5e8dec0806153507,2021-03-21_17h06.01.549,GuessTheSound,2020.2.10,Win32,60,,,,,,,,,,,,,,,SoundMST/Airhorn.wav,1,1,OLD,C,,,1,1,0.471245,0,55,55,55,1,,
,,,,,,,,,,,,,,5f4fa3bf5e8dec0806153507,2021-03-21_17h06.01.549,GuessTheSound,2020.2.10,Win32,60,,,,,,,,,,,,,,,SoundMST/Whistle_C.wav,2,2,SIMILAR,C,,,2,1,0.350945,0,56,56,56,1,,
,,,,,,,,,,,,,,5f4fa3bf5e8dec0806153507,2021-03-21_17h06.01.549,GuessTheSound,2020.2.10,Win32,60,,,,,,,,,,,,,,,SoundMST/Faucet_A.wav,2,3,NEW,C,,,2,1,0.61885,0,57,57,57,1,,
,,,,,,,,,,,,,,5f4fa3bf5e8dec0806153507,2021-03-21_17h06.01.549,GuessTheSound,2020.2.10,Win32,60,,,,,,,,,,,,,,,SoundMST/Pour_C.wav,2,2,SIMILAR,C,,,1,0,0.35121,0,58,58,58,1,,
,,,,,,,,,,,,,,5f4fa3bf5e8dec0806153507,2021-03-21_17h06.01.549,GuessTheSound,2020.2.10,Win32,60,,,,,,,,,,,,,,,SoundMST/Crow_B.wav,2,3,NEW,C,,,1,0,0.85098,0,59,59,59,1,,
,,,,,,,,,,,,,,5f4fa3bf5e8dec0806153507,2021-03-21_17h06.01.549,GuessTheSound,2020.2.10,Win32,60,,,,,,,,,,,,,,,SoundMST/Trumpet_B.wav,2,3,NEW,C,,,2,1,0.319005,0,60,60,60,1,,
,,,,,,,,,,,,,,5f4fa3bf5e8dec0806153507,2021-03-21_17h06.01.549,GuessTheSound,2020.2.10,Win32,60,,,,,,,,,,,,,,,SoundMST/Bullfrog.wav,1,1,OLD,C,,,1,1,0.3396,0,61,61,61,1,,
,,,,,,,,,,,,,,5f4fa3bf5e8dec0806153507,2021-03-21_17h06.01.549,GuessTheSound,2020.2.10,Win32,60,,,,,,,,,,,,,,,SoundMST/Helicopter_A.wav,1,1,OLD,C,,,1,1,0.38035,0,62,62,62,1,,
,,,,,,,,,,,,,,5f4fa3bf5e8dec0806153507,2021-03-21_17h06.01.549,GuessTheSound,2020.2.10,Win32,60,,,,,,,,,,,,,,,SoundMST/Elephant_C.wav,2,3,NEW,C,,,2,1,0.426285,0,63,63,63,1,,
,,,,,,,,,,,,,,5f4fa3bf5e8dec0806153507,2021-03-21_17h06.01.549,GuessTheSound,2020.2.10,Win32,60,,,,,,,,,,,,,,,SoundMST/Sneeze_B.wav,1,1,OLD,C,,,1,1,0.38441,0,64,64,64,1,,
,,,,,,,,,,,,,,5f4fa3bf5e8dec0806153507,2021-03-21_17h06.01.549,GuessTheSound,2020.2.10,Win32,60,,,,,,,,,,,,,,,SoundMST/Chime_B.wav,2,3,NEW,C,,,2,1,1.001585,0,65,65,65,1,,
,,,,,,,,,,,,,,5f4fa3bf5e8dec0806153507,2021-03-21_17h06.01.549,GuessTheSound,2020.2.10,Win32,60,,,,,,,,,,,,,,,SoundMST/Phone_D.wav,2,3,NEW,C,,,2,1,0.24123,0,66,66,66,1,,
,,,,,,,,,,,,,,5f4fa3bf5e8dec0806153507,2021-03-21_17h06.01.549,GuessTheSound,2020.2.10,Win32,60,,,,,,,,,,,,,,,SoundMST/HairDryer_A.wav,1,1,OLD,C,,,2,0,0.23844,0,67,67,67,1,,
,,,,,,,,,,,,,,5f4fa3bf5e8dec0806153507,2021-03-21_17h06.01.549,GuessTheSound,2020.2.10,Win32,60,,,,,,,,,,,,,,,SoundMST/Puff_A.wav,2,3,NEW,C,,,2,1,0.32383,0,68,68,68,1,,
,,,,,,,,,,,,,,5f4fa3bf5e8dec0806153507,2021-03-21_17h06.01.549,GuessTheSound,2020.2.10,Win32,60,,,,,,,,,,,,,,,SoundMST/Dog_F.wav,2,2,SIMILAR,C,,,2,1,0.291435,0,69,69,69,1,,
,,,,,,,,,,,,,,5f4fa3bf5e8dec0806153507,2021-03-21_17h06.01.549,GuessTheSound,2020.2.10,Win32,60,,,,,,,,,,,,,,,SoundMST/Donkey.wav,1,1,OLD,C,,,1,1,0.30141,0,70,70,70,1,,
,,,,,,,,,,,,,,5f4fa3bf5e8dec0806153507,2021-03-21_17h06.01.549,GuessTheSound,2020.2.10,Win32,60,,,,,,,,,,,,,,,SoundMST/Toilet_B.wav,2,3,NEW,C,,,2,1,0.28591,0,71,71,71,1,,
,,,,,,,,,,,,,,5f4fa3bf5e8dec0806153507,2021-03-21_17h06.01.549,GuessTheSound,2020.2.10,Win32,60,,,,,,,,,,,,,,,SoundMST/Writing_A.wav,2,3,NEW,C,,,2,1,0.35226,0,72,72,72,1,,
,,,,,,,,,,,,,,5f4fa3bf5e8dec0806153507,2021-03-21_17h06.01.549,GuessTheSound,2020.2.10,Win32,60,,,,,,,,,,,,,,,SoundMST/Cello.wav,2,3,NEW,C,,,2,1,0.370385,0,73,73,73,1,,
,,,,,,,,,,,,,,5f4fa3bf5e8dec0806153507,2021-03-21_17h06.01.549,GuessTheSound,2020.2.10,Win32,60,,,,,,,,,,,,,,,SoundMST/Crow_A.wav,2,2,SIMILAR,C,,,1,0,0.419055,0,74,74,74,1,,
,,,,,,,,,,,,,,5f4fa3bf5e8dec0806153507,2021-03-21_17h06.01.549,GuessTheSound,2020.2.10,Win32,60,,,,,,,,,,,,,,,SoundMST/Hammer_A.wav,1,1,OLD,C,,,2,0,0.80106,0,75,75,75,1,,
,,,,,,,,,,,,,,5f4fa3bf5e8dec0806153507,2021-03-21_17h06.01.549,GuessTheSound,2020.2.10,Win32,60,,,,,,,,,,,,,,,SoundMST/Cuckoo_A.wav,2,3,NEW,C,,,2,1,0.334315,0,76,76,76,1,,
,,,,,,,,,,,,,,5f4fa3bf5e8dec0806153507,2021-03-21_17h06.01.549,GuessTheSound,2020.2.10,Win32,60,,,,,,,,,,,,,,,SoundMST/Buzz.wav,1,1,OLD,C,,,1,1,0.353815,0,77,77,77,1,,
,,,,,,,,,,,,,,5f4fa3bf5e8dec0806153507,2021-03-21_17h06.01.549,GuessTheSound,2020.2.10,Win32,60,,,,,,,,,,,,,,,SoundMST/Siren_E.wav,2,3,NEW,C,,,2,1,0.292865,0,78,78,78,1,,
,,,,,,,,,,,,,,5f4fa3bf5e8dec0806153507,2021-03-21_17h06.01.549,GuessTheSound,2020.2.10,Win32,60,,,,,,,,,,,,,,,SoundMST/Trumpet_B.wav,1,1,OLD,C,,,1,1,0.470245,0,79,79,79,1,,
,,,,,,,,,,,,,,5f4fa3bf5e8dec0806153507,2021-03-21_17h06.01.549,GuessTheSound,2020.2.10,Win32,60,,,,,,,,,,,,,,,SoundMST/Wind_B.wav,2,3,NEW,C,,,2,1,0.25863,0,80,80,80,1,,
,,,,,,,,,,,,,,5f4fa3bf5e8dec0806153507,2021-03-21_17h06.01.549,GuessTheSound,2020.2.10,Win32,60,,,,,,,,,,,,,,,SoundMST/Cat_A.wav,2,3,NEW,C,,,2,1,0.53432,0,81,81,81,1,,
,,,,,,,,,,,,,,5f4fa3bf5e8dec0806153507,2021-03-21_17h06.01.549,GuessTheSound,2020.2.10,Win32,60,,,,,,,,,,,,,,,SoundMST/Phone_E.wav,2,2,SIMILAR,C,,,1,0,0.261585,0,82,82,82,1,,
,,,,,,,,,,,,,,5f4fa3bf5e8dec0806153507,2021-03-21_17h06.01.549,GuessTheSound,2020.2.10,Win32,60,,,,,,,,,,,,,,,SoundMST/Chomp_A.wav,2,3,NEW,C,,,2,1,0.436685,0,83,83,83,1,,
,,,,,,,,,,,,,,5f4fa3bf5e8dec0806153507,2021-03-21_17h06.01.549,GuessTheSound,2020.2.10,Win32,60,,,,,,,,,,,,,,,SoundMST/Elephant_A.wav,2,2,SIMILAR,C,,,1,0,0.4695,0,84,84,84,1,,
,,,,,,,,,,,,,,5f4fa3bf5e8dec0806153507,2021-03-21_17h06.01.549,GuessTheSound,2020.2.10,Win32,60,,,,,,,,,,,,,,,SoundMST/Cup.wav,2,3,NEW,C,,,2,1,0.345,0,85,85,85,1,,
,,,,,,,,,,,,,,5f4fa3bf5e8dec0806153507,2021-03-21_17h06.01.549,GuessTheSound,2020.2.10,Win32,60,,,,,,,,,,,,,,,SoundMST/Chime_A.wav,2,2,SIMILAR,C,,,1,0,0.28501,0,86,86,86,1,,
,,,,,,,,,,,,,,5f4fa3bf5e8dec0806153507,2021-03-21_17h06.01.549,GuessTheSound,2020.2.10,Win32,60,,,,,,,,,,,,,,,SoundMST/Droplet_B.wav,2,3,NEW,C,,,2,1,0.33469,0,87,87,87,1,,
,,,,,,,,,,,,,,5f4fa3bf5e8dec0806153507,2021-03-21_17h06.01.549,GuessTheSound,2020.2.10,Win32,60,,,,,,,,,,,,,,,SoundMST/Faucet_C.wav,2,2,SIMILAR,C,,,2,1,0.309775,0,88,88,88,1,,
,,,,,,,,,,,,,,5f4fa3bf5e8dec0806153507,2021-03-21_17h06.01.549,GuessTheSound,2020.2.10,Win32,60,,,,,,,,,,,,,,,SoundMST/Puff_A.wav,1,1,OLD,C,,,1,1,0.34145,0,89,89,89,1,,
,,,,,,,,,,,,,,5f4fa3bf5e8dec0806153507,2021-03-21_17h06.01.549,GuessTheSound,2020.2.10,Win32,60,,,,,,,,,,,,,,,SoundMST/Clap_B.wav,2,3,NEW,C,,,2,1,0.325765,0,90,90,90,1,,
,,,,,,,,,,,,,,5f4fa3bf5e8dec0806153507,2021-03-21_17h06.01.549,GuessTheSound,2020.2.10,Win32,60,,,,,,,,,,,,,,,SoundMST/Cello.wav,1,1,OLD,C,,,1,1,0.00906,0,91,91,91,1,,
,,,,,,,,,,,,,,5f4fa3bf5e8dec0806153507,2021-03-21_17h06.01.549,GuessTheSound,2020.2.10,Win32,60,,,,,,,,,,,,,,,SoundMST/Mosquito_B.wav,2,3,NEW,C,,,2,1,0.517695,0,92,92,92,1,,
,,,,,,,,,,,,,,5f4fa3bf5e8dec0806153507,2021-03-21_17h06.01.549,GuessTheSound,2020.2.10,Win32,60,,,,,,,,,,,,,,,SoundMST/Writing_C.wav,2,2,SIMILAR,C,,,2,1,0.353445,0,93,93,93,1,,
,,,,,,,,,,,,,,5f4fa3bf5e8dec0806153507,2021-03-21_17h06.01.549,GuessTheSound,2020.2.10,Win32,60,,,,,,,,,,,,,,,SoundMST/Guitar_B.wav,2,3,NEW,C,,,2,1,0.30909,0,94,94,94,1,,
,,,,,,,,,,,,,,5f4fa3bf5e8dec0806153507,2021-03-21_17h06.01.549,GuessTheSound,2020.2.10,Win32,60,,,,,,,,,,,,,,,SoundMST/Toilet_B.wav,1,1,OLD,C,,,1,1,0.335235,0,95,95,95,1,,
,,,,,,,,,,,,,,5f4fa3bf5e8dec0806153507,2021-03-21_17h06.01.549,GuessTheSound,2020.2.10,Win32,60,,,,,,,,,,,,,,,SoundMST/Bagpipe.wav,2,3,NEW,C,,,2,1,0.313475,0,96,96,96,1,,
,,,,,,,,,,,,,,5f4fa3bf5e8dec0806153507,2021-03-21_17h06.01.549,GuessTheSound,2020.2.10,Win32,60,,,,,,,,,,,,,,,SoundMST/Cuckoo_A.wav,1,1,OLD,C,,,1,1,0.301475,0,97,97,97,1,,
,,,,,,,,,,,,,,5f4fa3bf5e8dec0806153507,2021-03-21_17h06.01.549,GuessTheSound,2020.2.10,Win32,60,,,,,,,,,,,,,,,SoundMST/Wind_B.wav,1,1,OLD,C,,,1,1,0.274965,0,98,98,98,1,,
,,,,,,,,,,,,,,5f4fa3bf5e8dec0806153507,2021-03-21_17h06.01.549,GuessTheSound,2020.2.10,Win32,60,,,,,,,,,,,,,,,SoundMST/Cough_D.wav,2,3,NEW,C,,,2,1,0.287685,0,99,99,99,1,,
,,,,,,,,,,,,,,5f4fa3bf5e8dec0806153507,2021-03-21_17h06.01.549,GuessTheSound,2020.2.10,Win32,60,,,,,,,,,,,,,,,SoundMST/ManWhistle.wav,2,3,NEW,C,,,2,1,0.551105,0,100,100,100,1,,
,,,,,,,,,,,,,,5f4fa3bf5e8dec0806153507,2021-03-21_17h06.01.549,GuessTheSound,2020.2.10,Win32,60,,,,,,,,,,,,,,,SoundMST/Chomp_C.wav,2,2,SIMILAR,C,,,2,1,1.345095,0,101,101,101,1,,
,,,,,,,,,,,,,,5f4fa3bf5e8dec0806153507,2021-03-21_17h06.01.549,GuessTheSound,2020.2.10,Win32,60,,,,,,,,,,,,,,,SoundMST/Siren_A.wav,2,2,SIMILAR,C,,,2,1,0.268555,0,102,102,102,1,,
,,,,,,,,,,,,,,5f4fa3bf5e8dec0806153507,2021-03-21_17h06.01.549,GuessTheSound,2020.2.10,Win32,60,,,,,,,,,,,,,,,SoundMST/Thunder_A.wav,2,3,NEW,C,,,2,1,0.301095,0,103,103,103,1,,
,,,,,,,,,,,,,,5f4fa3bf5e8dec0806153507,2021-03-21_17h06.01.549,GuessTheSound,2020.2.10,Win32,60,,,,,,,,,,,,,,,SoundMST/Cat_A.wav,1,1,OLD,C,,,1,1,0.86832,0,104,104,104,1,,
,,,,,,,,,,,,,,5f4fa3bf5e8dec0806153507,2021-03-21_17h06.01.549,GuessTheSound,2020.2.10,Win32,60,,,,,,,,,,,,,,,SoundMST/Snore_C.wav,2,3,NEW,C,,,2,1,0.565915,0,105,105,105,1,,
,,,,,,,,,,,,,,5f4fa3bf5e8dec0806153507,2021-03-21_17h06.01.549,GuessTheSound,2020.2.10,Win32,60,,,,,,,,,,,,,,,SoundMST/Cup.wav,1,1,OLD,C,,,1,1,0.74604,0,106,106,106,1,,
,,,,,,,,,,,,,,5f4fa3bf5e8dec0806153507,2021-03-21_17h06.01.549,GuessTheSound,2020.2.10,Win32,60,,,,,,,,,,,,,,,SoundMST/Baby_F.wav,2,3,NEW,C,,,2,1,0.343525,0,107,107,107,1,,
,,,,,,,,,,,,,,5f4fa3bf5e8dec0806153507,2021-03-21_17h06.01.549,GuessTheSound,2020.2.10,Win32,60,,,,,,,,,,,,,,,SoundMST/Droplet_B.wav,1,1,OLD,C,,,1,1,0.50135,0,108,108,108,1,,
,,,,,,,,,,,,,,5f4fa3bf5e8dec0806153507,2021-03-21_17h06.01.549,GuessTheSound,2020.2.10,Win32,60,,,,,,,,,,,,,,,SoundMST/DialTone.wav,2,3,NEW,C,,,2,1,0.4689,0,109,109,109,1,,
,,,,,,,,,,,,,,5f4fa3bf5e8dec0806153507,2021-03-21_17h06.01.549,GuessTheSound,2020.2.10,Win32,60,,,,,,,,,,,,,,,SoundMST/Clap_C.wav,2,2,SIMILAR,C,,,1,0,0.334515,0,110,110,110,1,,
,,,,,,,,,,,,,,5f4fa3bf5e8dec0806153507,2021-03-21_17h06.01.549,GuessTheSound,2020.2.10,Win32,60,,,,,,,,,,,,,,,SoundMST/Heartbeat.wav,2,3,NEW,C,,,2,1,0.41831,0,111,111,111,1,,
,,,,,,,,,,,,,,5f4fa3bf5e8dec0806153507,2021-03-21_17h06.01.549,GuessTheSound,2020.2.10,Win32,60,,,,,,,,,,,,,,,SoundMST/Guitar_B.wav,1,1,OLD,C,,,1,1,0.396815,0,112,112,112,1,,
,,,,,,,,,,,,,,5f4fa3bf5e8dec0806153507,2021-03-21_17h06.01.549,GuessTheSound,2020.2.10,Win32,60,,,,,,,,,,,,,,,SoundMST/Typing.wav,2,3,NEW,C,,,2,1,0.417815,0,113,113,113,1,,
,,,,,,,,,,,,,,5f4fa3bf5e8dec0806153507,2021-03-21_17h06.01.549,GuessTheSound,2020.2.10,Win32,60,,,,,,,,,,,,,,,SoundMST/Mosquito_B.wav,1,1,OLD,C,,,1,1,0.317915,0,114,114,114,1,,
,,,,,,,,,,,,,,5f4fa3bf5e8dec0806153507,2021-03-21_17h06.01.549,GuessTheSound,2020.2.10,Win32,60,,,,,,,,,,,,,,,SoundMST/Airplane_B.wav,2,3,NEW,C,,,2,1,0.58425,0,115,115,115,1,,
,,,,,,,,,,,,,,5f4fa3bf5e8dec0806153507,2021-03-21_17h06.01.549,GuessTheSound,2020.2.10,Win32,60,,,,,,,,,,,,,,,SoundMST/ManWhistle.wav,1,1,OLD,C,,,1,1,0.301505,0,116,116,116,1,,
,,,,,,,,,,,,,,5f4fa3bf5e8dec0806153507,2021-03-21_17h06.01.549,GuessTheSound,2020.2.10,Win32,60,,,,,,,,,,,,,,,SoundMST/Steam.wav,2,3,NEW,C,,,2,1,0.261655,0,117,117,117,1,,
,,,,,,,,,,,,,,5f4fa3bf5e8dec0806153507,2021-03-21_17h06.01.549,GuessTheSound,2020.2.10,Win32,60,,,,,,,,,,,,,,,SoundMST/Baby_E.wav,2,2,SIMILAR,C,,,2,1,0.31922,0,118,118,118,1,,
,,,,,,,,,,,,,,5f4fa3bf5e8dec0806153507,2021-03-21_17h06.01.549,GuessTheSound,2020.2.10,Win32,60,,,,,,,,,,,,,,,SoundMST/Bagpipe.wav,1,1,OLD,C,,,1,1,0.258555,0,119,119,119,1,,
,,,,,,,,,,,,,,5f4fa3bf5e8dec0806153507,2021-03-21_17h06.01.549,GuessTheSound,2020.2.10,Win32,60,,,,,,,,,,,,,,,SoundMST/Cough_F.wav,2,2,SIMILAR,C,,,2,1,0.417485,0,120,120,120,1,,
,,,,,,,,,,,,,,5f4fa3bf5e8dec0806153507,2021-03-21_17h06.01.549,GuessTheSound,2020.2.10,Win32,60,,,,,,,,,,,,,,,SoundMST/Airplane_B.wav,1,1,OLD,C,,,1,1,0.252365,0,121,121,121,1,,
,,,,,,,,,,,,,,5f4fa3bf5e8dec0806153507,2021-03-21_17h06.01.549,GuessTheSound,2020.2.10,Win32,60,,,,,,,,,,,,,,,SoundMST/DialTone.wav,1,1,OLD,C,,,1,1,0.522235,0,122,122,122,1,,
,,,,,,,,,,,,,,5f4fa3bf5e8dec0806153507,2021-03-21_17h06.01.549,GuessTheSound,2020.2.10,Win32,60,,,,,,,,,,,,,,,SoundMST/Thunder_A.wav,1,1,OLD,C,,,1,1,0.30123,0,123,123,123,1,,
,,,,,,,,,,,,,,5f4fa3bf5e8dec0806153507,2021-03-21_17h06.01.549,GuessTheSound,2020.2.10,Win32,60,,,,,,,,,,,,,,,SoundMST/Typing.wav,1,1,OLD,C,,,1,1,0.37465,0,124,124,124,1,,
,,,,,,,,,,,,,,5f4fa3bf5e8dec0806153507,2021-03-21_17h06.01.549,GuessTheSound,2020.2.10,Win32,60,,,,,,,,,,,,,,,SoundMST/Snore_E.wav,2,2,SIMILAR,C,,,1,0,0.35159,0,125,125,125,1,,
,,,,,,,,,,,,,,5f4fa3bf5e8dec0806153507,2021-03-21_17h06.01.549,GuessTheSound,2020.2.10,Win32,60,,,,,,,,,,,,,,,SoundMST/Heartbeat.wav,1,1,OLD,C,,,1,1,0.40386,0,126,126,126,1,,
,,,,,,,,,,,,,,5f4fa3bf5e8dec0806153507,2021-03-21_17h06.01.549,GuessTheSound,2020.2.10,Win32,60,,,,,,,,,,,,,,,SoundMST/Steam.wav,1,1,OLD,C,,,1,1,0.343465,0,127,127,127,1,,
,,,,,,,,,,,,,,5f4fa3bf5e8dec0806153507,2021-03-21_17h06.01.549,GuessTheSound,2020.2.10,Win32,60,,,,,,,,,,,,,,,SoundMST/Airplane_B.wav,2,3,NEW,D,,,1,0,0.52542,0,128,128,128,1,,
,,,,,,,,,,,,,,5f4fa3bf5e8dec0806153507,2021-03-21_17h06.01.549,GuessTheSound,2020.2.10,Win32,60,,,,,,,,,,,,,,,,,,,,,,,,,,,,,,space,25.352785
