VolumeContinueKey.keys,VolumeContinueKey.rt,HeadphoneContinueKey.keys,HeadphoneContinueKey.rt,CheckResp.keys,CheckResp.corr,CheckResp.rt,trials_2.thisRepN,trials_2.thisTrialN,trials_2.thisN,trials_2.thisIndex,trials_2.ran,File,Correct,participant,session,date,expName,psychopyVersion,OS,frameRate,key_resp_2.keys,key_resp_2.rt,key_resp_3.keys,key_resp_3.rt,WelcomeContinueKey2.keys,WelcomeContinueKey2.rt,Practice_resp.keys,Practice_resp.corr,Practice_resp.rt,PracticeLoop.thisRepN,PracticeLoop.thisTrialN,PracticeLoop.thisN,PracticeLoop.thisIndex,PracticeLoop.ran,SoundFile,SoundCorrect,Correct2,SoundType,Trial,StartTast.keys,StartTast.rt,key_resp.keys,key_resp.corr,key_resp.rt,trials.thisRepN,trials.thisTrialN,trials.thisN,trials.thisIndex,trials.ran,ExitKey.keys,ExitKey.rt
space,3.73406,space,6.27788,3,1,2.021185,0,0,0,5,1,Headphone/t3_2.wav,3,602bd3c3cfb313398f836c1a,001,2021-03-09_03h42.45.913,GuessTheSound,2020.2.10,Win32,60,,,,,,,,,,,,,,,,,,,,,,,,,,,,,,,
,,,,2,1,1.25292,0,1,1,3,1,Headphone/t2_2.wav,2,602bd3c3cfb313398f836c1a,001,2021-03-09_03h42.45.913,GuessTheSound,2020.2.10,Win32,60,,,,,,,,,,,,,,,,,,,,,,,,,,,,,,,
,,,,1,1,0.63671,0,2,2,0,1,Headphone/t1_1.wav,1,602bd3c3cfb313398f836c1a,001,2021-03-09_03h42.45.913,GuessTheSound,2020.2.10,Win32,60,,,,,,,,,,,,,,,,,,,,,,,,,,,,,,,
,,,,1,1,0.69676,0,3,3,1,1,Headphone/t1_2.wav,1,602bd3c3cfb313398f836c1a,001,2021-03-09_03h42.45.913,GuessTheSound,2020.2.10,Win32,60,,,,,,,,,,,,,,,,,,,,,,,,,,,,,,,
,,,,3,1,0.43065,0,4,4,4,1,Headphone/t3_1.wav,3,602bd3c3cfb313398f836c1a,001,2021-03-09_03h42.45.913,GuessTheSound,2020.2.10,Win32,60,,,,,,,,,,,,,,,,,,,,,,,,,,,,,,,
,,,,2,1,0.44456,0,5,5,2,1,Headphone/t2_1.wav,2,602bd3c3cfb313398f836c1a,001,2021-03-09_03h42.45.913,GuessTheSound,2020.2.10,Win32,60,,,,,,,,,,,,,,,,,,,,,,,,,,,,,,,
,,,,,,,,,,,,,,602bd3c3cfb313398f836c1a,001,2021-03-09_03h42.45.913,GuessTheSound,2020.2.10,Win32,60,space,18.267265,space,7.810735,space,3.08914,2,1,5.771635,0,0,0,0,1,Practice/Seagull_A.wav,2,3,NEW,Practice,,,,,,,,,,,,
,,,,,,,,,,,,,,602bd3c3cfb313398f836c1a,001,2021-03-09_03h42.45.913,GuessTheSound,2020.2.10,Win32,60,,,,,,,2,1,2.66309,0,1,1,1,1,Practice/Skid_B.wav,2,3,NEW,Practice,,,,,,,,,,,,
,,,,,,,,,,,,,,602bd3c3cfb313398f836c1a,001,2021-03-09_03h42.45.913,GuessTheSound,2020.2.10,Win32,60,,,,,,,1,1,3.538425,0,2,2,2,1,Practice/Seagull_A.wav,1,1,OLD,Practice,,,,,,,,,,,,
,,,,,,,,,,,,,,602bd3c3cfb313398f836c1a,001,2021-03-09_03h42.45.913,GuessTheSound,2020.2.10,Win32,60,,,,,,,2,1,3.16452,0,3,3,3,1,Practice/Gargle_A.wav,2,3,NEW,Practice,,,,,,,,,,,,
,,,,,,,,,,,,,,602bd3c3cfb313398f836c1a,001,2021-03-09_03h42.45.913,GuessTheSound,2020.2.10,Win32,60,,,,,,,2,1,3.715045,0,4,4,4,1,Practice/Gargle_B.wav,2,2,SIMILAR,Practice,,,,,,,,,,,,
,,,,,,,,,,,,,,602bd3c3cfb313398f836c1a,001,2021-03-09_03h42.45.913,GuessTheSound,2020.2.10,Win32,60,,,,,,,,,,,,,,,SoundMST/CarStart_A.wav,2,3,NEW,C,space,6.713355,2,1,3.91641,0,0,0,0,1,,
,,,,,,,,,,,,,,602bd3c3cfb313398f836c1a,001,2021-03-09_03h42.45.913,GuessTheSound,2020.2.10,Win32,60,,,,,,,,,,,,,,,SoundMST/Bird_E.wav,2,3,NEW,C,,,2,1,1.234155,0,1,1,1,1,,
,,,,,,,,,,,,,,602bd3c3cfb313398f836c1a,001,2021-03-09_03h42.45.913,GuessTheSound,2020.2.10,Win32,60,,,,,,,,,,,,,,,SoundMST/Bubbles_A.wav,2,3,NEW,C,,,2,1,1.68223,0,2,2,2,1,,
,,,,,,,,,,,,,,602bd3c3cfb313398f836c1a,001,2021-03-09_03h42.45.913,GuessTheSound,2020.2.10,Win32,60,,,,,,,,,,,,,,,SoundMST/Horse.wav,2,3,NEW,C,,,2,1,1.63251,0,3,3,3,1,,
,,,,,,,,,,,,,,602bd3c3cfb313398f836c1a,001,2021-03-09_03h42.45.913,GuessTheSound,2020.2.10,Win32,60,,,,,,,,,,,,,,,SoundMST/IceDrop.wav,2,3,NEW,C,,,2,1,1.70838,0,4,4,4,1,,
,,,,,,,,,,,,,,602bd3c3cfb313398f836c1a,001,2021-03-09_03h42.45.913,GuessTheSound,2020.2.10,Win32,60,,,,,,,,,,,,,,,SoundMST/Sleighbells_B.wav,2,3,NEW,C,,,2,1,1.01322,0,5,5,5,1,,
,,,,,,,,,,,,,,602bd3c3cfb313398f836c1a,001,2021-03-09_03h42.45.913,GuessTheSound,2020.2.10,Win32,60,,,,,,,,,,,,,,,SoundMST/Growl_G.wav,2,3,NEW,C,,,2,1,1.264035,0,6,6,6,1,,
,,,,,,,,,,,,,,602bd3c3cfb313398f836c1a,001,2021-03-09_03h42.45.913,GuessTheSound,2020.2.10,Win32,60,,,,,,,,,,,,,,,SoundMST/Chicken_A.wav,2,3,NEW,C,,,2,1,0.977475,0,7,7,7,1,,
,,,,,,,,,,,,,,602bd3c3cfb313398f836c1a,001,2021-03-09_03h42.45.913,GuessTheSound,2020.2.10,Win32,60,,,,,,,,,,,,,,,SoundMST/Slurp.wav,2,3,NEW,C,,,2,1,1.12414,0,8,8,8,1,,
,,,,,,,,,,,,,,602bd3c3cfb313398f836c1a,001,2021-03-09_03h42.45.913,GuessTheSound,2020.2.10,Win32,60,,,,,,,,,,,,,,,SoundMST/CarStart_B.wav,2,2,SIMILAR,C,,,1,0,1.9113,0,9,9,9,1,,
,,,,,,,,,,,,,,602bd3c3cfb313398f836c1a,001,2021-03-09_03h42.45.913,GuessTheSound,2020.2.10,Win32,60,,,,,,,,,,,,,,,SoundMST/Printer.wav,2,3,NEW,C,,,2,1,1.14545,0,10,10,10,1,,
,,,,,,,,,,,,,,602bd3c3cfb313398f836c1a,001,2021-03-09_03h42.45.913,GuessTheSound,2020.2.10,Win32,60,,,,,,,,,,,,,,,SoundMST/Bowlingpins.wav,2,3,NEW,C,,,2,1,0.925055,0,11,11,11,1,,
,,,,,,,,,,,,,,602bd3c3cfb313398f836c1a,001,2021-03-09_03h42.45.913,GuessTheSound,2020.2.10,Win32,60,,,,,,,,,,,,,,,SoundMST/Fireworks.wav,2,3,NEW,C,,,2,1,0.956,0,12,12,12,1,,
,,,,,,,,,,,,,,602bd3c3cfb313398f836c1a,001,2021-03-09_03h42.45.913,GuessTheSound,2020.2.10,Win32,60,,,,,,,,,,,,,,,SoundMST/Howl.wav,2,3,NEW,C,,,2,1,0.423245,0,13,13,13,1,,
,,,,,,,,,,,,,,602bd3c3cfb313398f836c1a,001,2021-03-09_03h42.45.913,GuessTheSound,2020.2.10,Win32,60,,,,,,,,,,,,,,,SoundMST/Goat_F.wav,2,3,NEW,C,,,2,1,0.4199,0,14,14,14,1,,
,,,,,,,,,,,,,,602bd3c3cfb313398f836c1a,001,2021-03-09_03h42.45.913,GuessTheSound,2020.2.10,Win32,60,,,,,,,,,,,,,,,SoundMST/Horse.wav,1,1,OLD,C,,,2,0,11.13103,0,15,15,15,1,,
,,,,,,,,,,,,,,602bd3c3cfb313398f836c1a,001,2021-03-09_03h42.45.913,GuessTheSound,2020.2.10,Win32,60,,,,,,,,,,,,,,,SoundMST/Laugh_A.wav,2,3,NEW,C,,,2,1,0.497765,0,16,16,16,1,,
,,,,,,,,,,,,,,602bd3c3cfb313398f836c1a,001,2021-03-09_03h42.45.913,GuessTheSound,2020.2.10,Win32,60,,,,,,,,,,,,,,,SoundMST/Bubbles_B.wav,2,2,SIMILAR,C,,,1,0,1.033785,0,17,17,17,1,,
,,,,,,,,,,,,,,602bd3c3cfb313398f836c1a,001,2021-03-09_03h42.45.913,GuessTheSound,2020.2.10,Win32,60,,,,,,,,,,,,,,,SoundMST/Footsteps_G.wav,2,3,NEW,C,,,2,1,0.493255,0,18,18,18,1,,
,,,,,,,,,,,,,,602bd3c3cfb313398f836c1a,001,2021-03-09_03h42.45.913,GuessTheSound,2020.2.10,Win32,60,,,,,,,,,,,,,,,SoundMST/Duck_C.wav,2,3,NEW,C,,,2,1,0.525815,0,19,19,19,1,,
,,,,,,,,,,,,,,602bd3c3cfb313398f836c1a,001,2021-03-09_03h42.45.913,GuessTheSound,2020.2.10,Win32,60,,,,,,,,,,,,,,,SoundMST/Cow.wav,2,3,NEW,C,,,2,1,0.488275,0,20,20,20,1,,
,,,,,,,,,,,,,,602bd3c3cfb313398f836c1a,001,2021-03-09_03h42.45.913,GuessTheSound,2020.2.10,Win32,60,,,,,,,,,,,,,,,SoundMST/Airhorn.wav,2,3,NEW,C,,,2,1,0.341355,0,21,21,21,1,,
,,,,,,,,,,,,,,602bd3c3cfb313398f836c1a,001,2021-03-09_03h42.45.913,GuessTheSound,2020.2.10,Win32,60,,,,,,,,,,,,,,,SoundMST/Printer.wav,1,1,OLD,C,,,1,1,0.87365,0,22,22,22,1,,
,,,,,,,,,,,,,,602bd3c3cfb313398f836c1a,001,2021-03-09_03h42.45.913,GuessTheSound,2020.2.10,Win32,60,,,,,,,,,,,,,,,SoundMST/Sleighbells_B.wav,1,1,OLD,C,,,1,1,0.4948,0,23,23,23,1,,
,,,,,,,,,,,,,,602bd3c3cfb313398f836c1a,001,2021-03-09_03h42.45.913,GuessTheSound,2020.2.10,Win32,60,,,,,,,,,,,,,,,SoundMST/Camera.wav,2,3,NEW,C,,,2,1,0.721705,0,24,24,24,1,,
,,,,,,,,,,,,,,602bd3c3cfb313398f836c1a,001,2021-03-09_03h42.45.913,GuessTheSound,2020.2.10,Win32,60,,,,,,,,,,,,,,,SoundMST/Growl_H.wav,2,2,SIMILAR,C,,,1,0,0.663285,0,25,25,25,1,,
,,,,,,,,,,,,,,602bd3c3cfb313398f836c1a,001,2021-03-09_03h42.45.913,GuessTheSound,2020.2.10,Win32,60,,,,,,,,,,,,,,,SoundMST/Whistle_A.wav,2,3,NEW,C,,,2,1,0.542835,0,26,26,26,1,,
,,,,,,,,,,,,,,602bd3c3cfb313398f836c1a,001,2021-03-09_03h42.45.913,GuessTheSound,2020.2.10,Win32,60,,,,,,,,,,,,,,,SoundMST/Piano_D.wav,2,3,NEW,C,,,2,1,0.457865,0,27,27,27,1,,
,,,,,,,,,,,,,,602bd3c3cfb313398f836c1a,001,2021-03-09_03h42.45.913,GuessTheSound,2020.2.10,Win32,60,,,,,,,,,,,,,,,SoundMST/Coin_D.wav,2,3,NEW,C,,,2,1,1.39976,0,28,28,28,1,,
,,,,,,,,,,,,,,602bd3c3cfb313398f836c1a,001,2021-03-09_03h42.45.913,GuessTheSound,2020.2.10,Win32,60,,,,,,,,,,,,,,,SoundMST/Bird_A.wav,2,2,SIMILAR,C,,,2,1,0.554435,0,29,29,29,1,,
,,,,,,,,,,,,,,602bd3c3cfb313398f836c1a,001,2021-03-09_03h42.45.913,GuessTheSound,2020.2.10,Win32,60,,,,,,,,,,,,,,,SoundMST/PaperRip.wav,2,3,NEW,C,,,2,1,1.03739,0,30,30,30,1,,
,,,,,,,,,,,,,,602bd3c3cfb313398f836c1a,001,2021-03-09_03h42.45.913,GuessTheSound,2020.2.10,Win32,60,,,,,,,,,,,,,,,SoundMST/Slurp.wav,1,1,OLD,C,,,1,1,6.50748,0,31,31,31,1,,
,,,,,,,,,,,,,,602bd3c3cfb313398f836c1a,001,2021-03-09_03h42.45.913,GuessTheSound,2020.2.10,Win32,60,,,,,,,,,,,,,,,SoundMST/Howl.wav,1,1,OLD,C,,,1,1,1.261745,0,32,32,32,1,,
,,,,,,,,,,,,,,602bd3c3cfb313398f836c1a,001,2021-03-09_03h42.45.913,GuessTheSound,2020.2.10,Win32,60,,,,,,,,,,,,,,,SoundMST/IceDrop.wav,1,1,OLD,C,,,1,1,0.589235,0,33,33,33,1,,
,,,,,,,,,,,,,,602bd3c3cfb313398f836c1a,001,2021-03-09_03h42.45.913,GuessTheSound,2020.2.10,Win32,60,,,,,,,,,,,,,,,SoundMST/Pour_B.wav,2,3,NEW,C,,,2,1,0.322025,0,34,34,34,1,,
,,,,,,,,,,,,,,602bd3c3cfb313398f836c1a,001,2021-03-09_03h42.45.913,GuessTheSound,2020.2.10,Win32,60,,,,,,,,,,,,,,,SoundMST/Fireworks.wav,1,1,OLD,C,,,1,1,0.99817,0,35,35,35,1,,
,,,,,,,,,,,,,,602bd3c3cfb313398f836c1a,001,2021-03-09_03h42.45.913,GuessTheSound,2020.2.10,Win32,60,,,,,,,,,,,,,,,SoundMST/Footsteps_F.wav,2,2,SIMILAR,C,,,1,0,0.957835,0,36,36,36,1,,
,,,,,,,,,,,,,,602bd3c3cfb313398f836c1a,001,2021-03-09_03h42.45.913,GuessTheSound,2020.2.10,Win32,60,,,,,,,,,,,,,,,SoundMST/Chicken_A.wav,1,1,OLD,C,,,1,1,3.031935,0,37,37,37,1,,
,,,,,,,,,,,,,,602bd3c3cfb313398f836c1a,001,2021-03-09_03h42.45.913,GuessTheSound,2020.2.10,Win32,60,,,,,,,,,,,,,,,SoundMST/Bullfrog.wav,2,3,NEW,C,,,2,1,0.723465,0,38,38,38,1,,
,,,,,,,,,,,,,,602bd3c3cfb313398f836c1a,001,2021-03-09_03h42.45.913,GuessTheSound,2020.2.10,Win32,60,,,,,,,,,,,,,,,SoundMST/Bowlingpins.wav,1,1,OLD,C,,,1,1,1.23474,0,39,39,39,1,,
,,,,,,,,,,,,,,602bd3c3cfb313398f836c1a,001,2021-03-09_03h42.45.913,GuessTheSound,2020.2.10,Win32,60,,,,,,,,,,,,,,,SoundMST/Helicopter_A.wav,2,3,NEW,C,,,2,1,0.346745,0,40,40,40,1,,
,,,,,,,,,,,,,,602bd3c3cfb313398f836c1a,001,2021-03-09_03h42.45.913,GuessTheSound,2020.2.10,Win32,60,,,,,,,,,,,,,,,SoundMST/Goat_C.wav,2,2,SIMILAR,C,,,2,1,2.12082,0,41,41,41,1,,
,,,,,,,,,,,,,,602bd3c3cfb313398f836c1a,001,2021-03-09_03h42.45.913,GuessTheSound,2020.2.10,Win32,60,,,,,,,,,,,,,,,SoundMST/HairDryer_A.wav,2,3,NEW,C,,,2,1,0.376205,0,42,42,42,1,,
,,,,,,,,,,,,,,602bd3c3cfb313398f836c1a,001,2021-03-09_03h42.45.913,GuessTheSound,2020.2.10,Win32,60,,,,,,,,,,,,,,,SoundMST/Duck_D.wav,2,2,SIMILAR,C,,,1,0,0.54578,0,43,43,43,1,,
,,,,,,,,,,,,,,602bd3c3cfb313398f836c1a,001,2021-03-09_03h42.45.913,GuessTheSound,2020.2.10,Win32,60,,,,,,,,,,,,,,,SoundMST/PaperRip.wav,1,1,OLD,C,,,1,1,1.066735,0,44,44,44,1,,
,,,,,,,,,,,,,,602bd3c3cfb313398f836c1a,001,2021-03-09_03h42.45.913,GuessTheSound,2020.2.10,Win32,60,,,,,,,,,,,,,,,SoundMST/Dog_H.wav,2,3,NEW,C,,,2,1,0.32291,0,45,45,45,1,,
,,,,,,,,,,,,,,602bd3c3cfb313398f836c1a,001,2021-03-09_03h42.45.913,GuessTheSound,2020.2.10,Win32,60,,,,,,,,,,,,,,,SoundMST/Camera.wav,1,1,OLD,C,,,1,1,1.282275,0,46,46,46,1,,
,,,,,,,,,,,,,,602bd3c3cfb313398f836c1a,001,2021-03-09_03h42.45.913,GuessTheSound,2020.2.10,Win32,60,,,,,,,,,,,,,,,SoundMST/Laugh_D.wav,2,2,SIMILAR,C,,,2,1,1.213765,0,47,47,47,1,,
,,,,,,,,,,,,,,602bd3c3cfb313398f836c1a,001,2021-03-09_03h42.45.913,GuessTheSound,2020.2.10,Win32,60,,,,,,,,,,,,,,,SoundMST/Sneeze_B.wav,2,3,NEW,C,,,2,1,0.30706,0,48,48,48,1,,
,,,,,,,,,,,,,,602bd3c3cfb313398f836c1a,001,2021-03-09_03h42.45.913,GuessTheSound,2020.2.10,Win32,60,,,,,,,,,,,,,,,SoundMST/Cow.wav,1,1,OLD,C,,,1,1,0.42374,0,49,49,49,1,,
,,,,,,,,,,,,,,602bd3c3cfb313398f836c1a,001,2021-03-09_03h42.45.913,GuessTheSound,2020.2.10,Win32,60,,,,,,,,,,,,,,,SoundMST/Donkey.wav,2,3,NEW,C,,,1,0,0.254985,0,50,50,50,1,,
,,,,,,,,,,,,,,602bd3c3cfb313398f836c1a,001,2021-03-09_03h42.45.913,GuessTheSound,2020.2.10,Win32,60,,,,,,,,,,,,,,,SoundMST/Coin_E.wav,2,2,SIMILAR,C,,,1,0,0.32653,0,51,51,51,1,,
,,,,,,,,,,,,,,602bd3c3cfb313398f836c1a,001,2021-03-09_03h42.45.913,GuessTheSound,2020.2.10,Win32,60,,,,,,,,,,,,,,,SoundMST/Buzz.wav,2,3,NEW,C,,,2,1,0.32089,0,52,52,52,1,,
,,,,,,,,,,,,,,602bd3c3cfb313398f836c1a,001,2021-03-09_03h42.45.913,GuessTheSound,2020.2.10,Win32,60,,,,,,,,,,,,,,,SoundMST/Piano_D.wav,1,1,OLD,C,,,1,1,2.37593,0,53,53,53,1,,
,,,,,,,,,,,,,,602bd3c3cfb313398f836c1a,001,2021-03-09_03h42.45.913,GuessTheSound,2020.2.10,Win32,60,,,,,,,,,,,,,,,SoundMST/Hammer_A.wav,2,3,NEW,C,,,2,1,0.15767,0,54,54,54,1,,
,,,,,,,,,,,,,,602bd3c3cfb313398f836c1a,001,2021-03-09_03h42.45.913,GuessTheSound,2020.2.10,Win32,60,,,,,,,,,,,,,,,SoundMST/Airhorn.wav,1,1,OLD,C,,,1,1,0.84767,0,55,55,55,1,,
,,,,,,,,,,,,,,602bd3c3cfb313398f836c1a,001,2021-03-09_03h42.45.913,GuessTheSound,2020.2.10,Win32,60,,,,,,,,,,,,,,,SoundMST/Whistle_C.wav,2,2,SIMILAR,C,,,1,0,0.36323,0,56,56,56,1,,
,,,,,,,,,,,,,,602bd3c3cfb313398f836c1a,001,2021-03-09_03h42.45.913,GuessTheSound,2020.2.10,Win32,60,,,,,,,,,,,,,,,SoundMST/Faucet_A.wav,2,3,NEW,C,,,2,1,1.17023,0,57,57,57,1,,
,,,,,,,,,,,,,,602bd3c3cfb313398f836c1a,001,2021-03-09_03h42.45.913,GuessTheSound,2020.2.10,Win32,60,,,,,,,,,,,,,,,SoundMST/Pour_C.wav,2,2,SIMILAR,C,,,2,1,0.34555,0,58,58,58,1,,
,,,,,,,,,,,,,,602bd3c3cfb313398f836c1a,001,2021-03-09_03h42.45.913,GuessTheSound,2020.2.10,Win32,60,,,,,,,,,,,,,,,SoundMST/Crow_B.wav,2,3,NEW,C,,,1,0,0.246825,0,59,59,59,1,,
,,,,,,,,,,,,,,602bd3c3cfb313398f836c1a,001,2021-03-09_03h42.45.913,GuessTheSound,2020.2.10,Win32,60,,,,,,,,,,,,,,,SoundMST/Trumpet_B.wav,2,3,NEW,C,,,2,1,0.661015,0,60,60,60,1,,
,,,,,,,,,,,,,,602bd3c3cfb313398f836c1a,001,2021-03-09_03h42.45.913,GuessTheSound,2020.2.10,Win32,60,,,,,,,,,,,,,,,SoundMST/Bullfrog.wav,1,1,OLD,C,,,1,1,0.25722,0,61,61,61,1,,
,,,,,,,,,,,,,,602bd3c3cfb313398f836c1a,001,2021-03-09_03h42.45.913,GuessTheSound,2020.2.10,Win32,60,,,,,,,,,,,,,,,SoundMST/Helicopter_A.wav,1,1,OLD,C,,,1,1,0.23699,0,62,62,62,1,,
,,,,,,,,,,,,,,602bd3c3cfb313398f836c1a,001,2021-03-09_03h42.45.913,GuessTheSound,2020.2.10,Win32,60,,,,,,,,,,,,,,,SoundMST/Elephant_C.wav,2,3,NEW,C,,,2,1,0.41436,0,63,63,63,1,,
,,,,,,,,,,,,,,602bd3c3cfb313398f836c1a,001,2021-03-09_03h42.45.913,GuessTheSound,2020.2.10,Win32,60,,,,,,,,,,,,,,,SoundMST/Sneeze_B.wav,1,1,OLD,C,,,1,1,0.553365,0,64,64,64,1,,
,,,,,,,,,,,,,,602bd3c3cfb313398f836c1a,001,2021-03-09_03h42.45.913,GuessTheSound,2020.2.10,Win32,60,,,,,,,,,,,,,,,SoundMST/Chime_B.wav,2,3,NEW,C,,,2,1,0.230965,0,65,65,65,1,,
,,,,,,,,,,,,,,602bd3c3cfb313398f836c1a,001,2021-03-09_03h42.45.913,GuessTheSound,2020.2.10,Win32,60,,,,,,,,,,,,,,,SoundMST/Phone_D.wav,2,3,NEW,C,,,2,1,0.2833,0,66,66,66,1,,
,,,,,,,,,,,,,,602bd3c3cfb313398f836c1a,001,2021-03-09_03h42.45.913,GuessTheSound,2020.2.10,Win32,60,,,,,,,,,,,,,,,SoundMST/HairDryer_A.wav,1,1,OLD,C,,,1,1,0.30122,0,67,67,67,1,,
,,,,,,,,,,,,,,602bd3c3cfb313398f836c1a,001,2021-03-09_03h42.45.913,GuessTheSound,2020.2.10,Win32,60,,,,,,,,,,,,,,,SoundMST/Puff_A.wav,2,3,NEW,C,,,2,1,0.29111,0,68,68,68,1,,
,,,,,,,,,,,,,,602bd3c3cfb313398f836c1a,001,2021-03-09_03h42.45.913,GuessTheSound,2020.2.10,Win32,60,,,,,,,,,,,,,,,SoundMST/Dog_F.wav,2,2,SIMILAR,C,,,2,1,1.073745,0,69,69,69,1,,
,,,,,,,,,,,,,,602bd3c3cfb313398f836c1a,001,2021-03-09_03h42.45.913,GuessTheSound,2020.2.10,Win32,60,,,,,,,,,,,,,,,SoundMST/Donkey.wav,1,1,OLD,C,,,1,1,0.40975,0,70,70,70,1,,
,,,,,,,,,,,,,,602bd3c3cfb313398f836c1a,001,2021-03-09_03h42.45.913,GuessTheSound,2020.2.10,Win32,60,,,,,,,,,,,,,,,SoundMST/Toilet_B.wav,2,3,NEW,C,,,1,0,0.40703,0,71,71,71,1,,
,,,,,,,,,,,,,,602bd3c3cfb313398f836c1a,001,2021-03-09_03h42.45.913,GuessTheSound,2020.2.10,Win32,60,,,,,,,,,,,,,,,SoundMST/Writing_A.wav,2,3,NEW,C,,,2,1,0.188785,0,72,72,72,1,,
,,,,,,,,,,,,,,602bd3c3cfb313398f836c1a,001,2021-03-09_03h42.45.913,GuessTheSound,2020.2.10,Win32,60,,,,,,,,,,,,,,,SoundMST/Cello.wav,2,3,NEW,C,,,2,1,1.078165,0,73,73,73,1,,
,,,,,,,,,,,,,,602bd3c3cfb313398f836c1a,001,2021-03-09_03h42.45.913,GuessTheSound,2020.2.10,Win32,60,,,,,,,,,,,,,,,SoundMST/Crow_A.wav,2,2,SIMILAR,C,,,1,0,0.342265,0,74,74,74,1,,
,,,,,,,,,,,,,,602bd3c3cfb313398f836c1a,001,2021-03-09_03h42.45.913,GuessTheSound,2020.2.10,Win32,60,,,,,,,,,,,,,,,SoundMST/Hammer_A.wav,1,1,OLD,C,,,1,1,0.327245,0,75,75,75,1,,
,,,,,,,,,,,,,,602bd3c3cfb313398f836c1a,001,2021-03-09_03h42.45.913,GuessTheSound,2020.2.10,Win32,60,,,,,,,,,,,,,,,SoundMST/Cuckoo_A.wav,2,3,NEW,C,,,2,1,0.261735,0,76,76,76,1,,
,,,,,,,,,,,,,,602bd3c3cfb313398f836c1a,001,2021-03-09_03h42.45.913,GuessTheSound,2020.2.10,Win32,60,,,,,,,,,,,,,,,SoundMST/Buzz.wav,1,1,OLD,C,,,1,1,0.29022,0,77,77,77,1,,
,,,,,,,,,,,,,,602bd3c3cfb313398f836c1a,001,2021-03-09_03h42.45.913,GuessTheSound,2020.2.10,Win32,60,,,,,,,,,,,,,,,SoundMST/Siren_E.wav,2,3,NEW,C,,,2,1,0.46373,0,78,78,78,1,,
,,,,,,,,,,,,,,602bd3c3cfb313398f836c1a,001,2021-03-09_03h42.45.913,GuessTheSound,2020.2.10,Win32,60,,,,,,,,,,,,,,,SoundMST/Trumpet_B.wav,1,1,OLD,C,,,1,1,3.101075,0,79,79,79,1,,
,,,,,,,,,,,,,,602bd3c3cfb313398f836c1a,001,2021-03-09_03h42.45.913,GuessTheSound,2020.2.10,Win32,60,,,,,,,,,,,,,,,SoundMST/Wind_B.wav,2,3,NEW,C,,,2,1,0.174525,0,80,80,80,1,,
,,,,,,,,,,,,,,602bd3c3cfb313398f836c1a,001,2021-03-09_03h42.45.913,GuessTheSound,2020.2.10,Win32,60,,,,,,,,,,,,,,,SoundMST/Cat_A.wav,2,3,NEW,C,,,2,1,0.19924,0,81,81,81,1,,
,,,,,,,,,,,,,,602bd3c3cfb313398f836c1a,001,2021-03-09_03h42.45.913,GuessTheSound,2020.2.10,Win32,60,,,,,,,,,,,,,,,SoundMST/Phone_E.wav,2,2,SIMILAR,C,,,1,0,0.248895,0,82,82,82,1,,
,,,,,,,,,,,,,,602bd3c3cfb313398f836c1a,001,2021-03-09_03h42.45.913,GuessTheSound,2020.2.10,Win32,60,,,,,,,,,,,,,,,SoundMST/Chomp_A.wav,2,3,NEW,C,,,2,1,0.273485,0,83,83,83,1,,
,,,,,,,,,,,,,,602bd3c3cfb313398f836c1a,001,2021-03-09_03h42.45.913,GuessTheSound,2020.2.10,Win32,60,,,,,,,,,,,,,,,SoundMST/Elephant_A.wav,2,2,SIMILAR,C,,,2,1,0.29926,0,84,84,84,1,,
,,,,,,,,,,,,,,602bd3c3cfb313398f836c1a,001,2021-03-09_03h42.45.913,GuessTheSound,2020.2.10,Win32,60,,,,,,,,,,,,,,,SoundMST/Cup.wav,2,3,NEW,C,,,2,1,0.739265,0,85,85,85,1,,
,,,,,,,,,,,,,,602bd3c3cfb313398f836c1a,001,2021-03-09_03h42.45.913,GuessTheSound,2020.2.10,Win32,60,,,,,,,,,,,,,,,SoundMST/Chime_A.wav,2,2,SIMILAR,C,,,1,0,0.22164,0,86,86,86,1,,
,,,,,,,,,,,,,,602bd3c3cfb313398f836c1a,001,2021-03-09_03h42.45.913,GuessTheSound,2020.2.10,Win32,60,,,,,,,,,,,,,,,SoundMST/Droplet_B.wav,2,3,NEW,C,,,2,1,0.322485,0,87,87,87,1,,
,,,,,,,,,,,,,,602bd3c3cfb313398f836c1a,001,2021-03-09_03h42.45.913,GuessTheSound,2020.2.10,Win32,60,,,,,,,,,,,,,,,SoundMST/Faucet_C.wav,2,2,SIMILAR,C,,,2,1,0.463455,0,88,88,88,1,,
,,,,,,,,,,,,,,602bd3c3cfb313398f836c1a,001,2021-03-09_03h42.45.913,GuessTheSound,2020.2.10,Win32,60,,,,,,,,,,,,,,,SoundMST/Puff_A.wav,1,1,OLD,C,,,1,1,0.492485,0,89,89,89,1,,
,,,,,,,,,,,,,,602bd3c3cfb313398f836c1a,001,2021-03-09_03h42.45.913,GuessTheSound,2020.2.10,Win32,60,,,,,,,,,,,,,,,SoundMST/Clap_B.wav,2,3,NEW,C,,,2,1,0.23638,0,90,90,90,1,,
,,,,,,,,,,,,,,602bd3c3cfb313398f836c1a,001,2021-03-09_03h42.45.913,GuessTheSound,2020.2.10,Win32,60,,,,,,,,,,,,,,,SoundMST/Cello.wav,1,1,OLD,C,,,1,1,0.348425,0,91,91,91,1,,
,,,,,,,,,,,,,,602bd3c3cfb313398f836c1a,001,2021-03-09_03h42.45.913,GuessTheSound,2020.2.10,Win32,60,,,,,,,,,,,,,,,SoundMST/Mosquito_B.wav,2,3,NEW,C,,,2,1,0.32766,0,92,92,92,1,,
,,,,,,,,,,,,,,602bd3c3cfb313398f836c1a,001,2021-03-09_03h42.45.913,GuessTheSound,2020.2.10,Win32,60,,,,,,,,,,,,,,,SoundMST/Writing_C.wav,2,2,SIMILAR,C,,,1,0,0.25871,0,93,93,93,1,,
,,,,,,,,,,,,,,602bd3c3cfb313398f836c1a,001,2021-03-09_03h42.45.913,GuessTheSound,2020.2.10,Win32,60,,,,,,,,,,,,,,,SoundMST/Guitar_B.wav,2,3,NEW,C,,,2,1,0.257885,0,94,94,94,1,,
,,,,,,,,,,,,,,602bd3c3cfb313398f836c1a,001,2021-03-09_03h42.45.913,GuessTheSound,2020.2.10,Win32,60,,,,,,,,,,,,,,,SoundMST/Toilet_B.wav,1,1,OLD,C,,,1,1,0.049705,0,95,95,95,1,,
,,,,,,,,,,,,,,602bd3c3cfb313398f836c1a,001,2021-03-09_03h42.45.913,GuessTheSound,2020.2.10,Win32,60,,,,,,,,,,,,,,,SoundMST/Bagpipe.wav,2,3,NEW,C,,,2,1,0.441675,0,96,96,96,1,,
,,,,,,,,,,,,,,602bd3c3cfb313398f836c1a,001,2021-03-09_03h42.45.913,GuessTheSound,2020.2.10,Win32,60,,,,,,,,,,,,,,,SoundMST/Cuckoo_A.wav,1,1,OLD,C,,,1,1,0.254825,0,97,97,97,1,,
,,,,,,,,,,,,,,602bd3c3cfb313398f836c1a,001,2021-03-09_03h42.45.913,GuessTheSound,2020.2.10,Win32,60,,,,,,,,,,,,,,,SoundMST/Wind_B.wav,1,1,OLD,C,,,1,1,0.188365,0,98,98,98,1,,
,,,,,,,,,,,,,,602bd3c3cfb313398f836c1a,001,2021-03-09_03h42.45.913,GuessTheSound,2020.2.10,Win32,60,,,,,,,,,,,,,,,SoundMST/Cough_G.wav,2,3,NEW,C,,,1,0,0.88465,0,99,99,99,1,,
,,,,,,,,,,,,,,602bd3c3cfb313398f836c1a,001,2021-03-09_03h42.45.913,GuessTheSound,2020.2.10,Win32,60,,,,,,,,,,,,,,,SoundMST/ManWhistle.wav,2,3,NEW,C,,,2,1,0.25518,0,100,100,100,1,,
,,,,,,,,,,,,,,602bd3c3cfb313398f836c1a,001,2021-03-09_03h42.45.913,GuessTheSound,2020.2.10,Win32,60,,,,,,,,,,,,,,,SoundMST/Chomp_C.wav,2,2,SIMILAR,C,,,2,1,3.13968,0,101,101,101,1,,
,,,,,,,,,,,,,,602bd3c3cfb313398f836c1a,001,2021-03-09_03h42.45.913,GuessTheSound,2020.2.10,Win32,60,,,,,,,,,,,,,,,SoundMST/Siren_A.wav,2,2,SIMILAR,C,,,2,1,0.32279,0,102,102,102,1,,
,,,,,,,,,,,,,,602bd3c3cfb313398f836c1a,001,2021-03-09_03h42.45.913,GuessTheSound,2020.2.10,Win32,60,,,,,,,,,,,,,,,SoundMST/Thunder_A.wav,2,3,NEW,C,,,2,1,0.223515,0,103,103,103,1,,
,,,,,,,,,,,,,,602bd3c3cfb313398f836c1a,001,2021-03-09_03h42.45.913,GuessTheSound,2020.2.10,Win32,60,,,,,,,,,,,,,,,SoundMST/Cat_A.wav,1,1,OLD,C,,,1,1,0.06685,0,104,104,104,1,,
,,,,,,,,,,,,,,602bd3c3cfb313398f836c1a,001,2021-03-09_03h42.45.913,GuessTheSound,2020.2.10,Win32,60,,,,,,,,,,,,,,,SoundMST/Snore_D.wav,2,3,NEW,C,,,2,1,0.34156,0,105,105,105,1,,
,,,,,,,,,,,,,,602bd3c3cfb313398f836c1a,001,2021-03-09_03h42.45.913,GuessTheSound,2020.2.10,Win32,60,,,,,,,,,,,,,,,SoundMST/Cup.wav,1,1,OLD,C,,,1,1,0.310465,0,106,106,106,1,,
,,,,,,,,,,,,,,602bd3c3cfb313398f836c1a,001,2021-03-09_03h42.45.913,GuessTheSound,2020.2.10,Win32,60,,,,,,,,,,,,,,,SoundMST/Baby_F.wav,2,3,NEW,C,,,2,1,0.2574,0,107,107,107,1,,
,,,,,,,,,,,,,,602bd3c3cfb313398f836c1a,001,2021-03-09_03h42.45.913,GuessTheSound,2020.2.10,Win32,60,,,,,,,,,,,,,,,SoundMST/Droplet_B.wav,1,1,OLD,C,,,1,1,0.37962,0,108,108,108,1,,
,,,,,,,,,,,,,,602bd3c3cfb313398f836c1a,001,2021-03-09_03h42.45.913,GuessTheSound,2020.2.10,Win32,60,,,,,,,,,,,,,,,SoundMST/DialTone.wav,2,3,NEW,C,,,2,1,0.32761,0,109,109,109,1,,
,,,,,,,,,,,,,,602bd3c3cfb313398f836c1a,001,2021-03-09_03h42.45.913,GuessTheSound,2020.2.10,Win32,60,,,,,,,,,,,,,,,SoundMST/Clap_C.wav,2,2,SIMILAR,C,,,1,0,0.56679,0,110,110,110,1,,
,,,,,,,,,,,,,,602bd3c3cfb313398f836c1a,001,2021-03-09_03h42.45.913,GuessTheSound,2020.2.10,Win32,60,,,,,,,,,,,,,,,SoundMST/Heartbeat.wav,2,3,NEW,C,,,2,1,0.299305,0,111,111,111,1,,
,,,,,,,,,,,,,,602bd3c3cfb313398f836c1a,001,2021-03-09_03h42.45.913,GuessTheSound,2020.2.10,Win32,60,,,,,,,,,,,,,,,SoundMST/Guitar_B.wav,1,1,OLD,C,,,1,1,0.2969,0,112,112,112,1,,
,,,,,,,,,,,,,,602bd3c3cfb313398f836c1a,001,2021-03-09_03h42.45.913,GuessTheSound,2020.2.10,Win32,60,,,,,,,,,,,,,,,SoundMST/Typing.wav,2,3,NEW,C,,,2,1,0.284,0,113,113,113,1,,
,,,,,,,,,,,,,,602bd3c3cfb313398f836c1a,001,2021-03-09_03h42.45.913,GuessTheSound,2020.2.10,Win32,60,,,,,,,,,,,,,,,SoundMST/Mosquito_B.wav,1,1,OLD,C,,,1,1,0.161505,0,114,114,114,1,,
,,,,,,,,,,,,,,602bd3c3cfb313398f836c1a,001,2021-03-09_03h42.45.913,GuessTheSound,2020.2.10,Win32,60,,,,,,,,,,,,,,,SoundMST/Airplane_B.wav,2,3,NEW,C,,,2,1,0.09103,0,115,115,115,1,,
,,,,,,,,,,,,,,602bd3c3cfb313398f836c1a,001,2021-03-09_03h42.45.913,GuessTheSound,2020.2.10,Win32,60,,,,,,,,,,,,,,,SoundMST/ManWhistle.wav,1,1,OLD,C,,,1,1,0.69701,0,116,116,116,1,,
,,,,,,,,,,,,,,602bd3c3cfb313398f836c1a,001,2021-03-09_03h42.45.913,GuessTheSound,2020.2.10,Win32,60,,,,,,,,,,,,,,,SoundMST/Steam.wav,2,3,NEW,C,,,2,1,0.17627,0,117,117,117,1,,
,,,,,,,,,,,,,,602bd3c3cfb313398f836c1a,001,2021-03-09_03h42.45.913,GuessTheSound,2020.2.10,Win32,60,,,,,,,,,,,,,,,SoundMST/Baby_E.wav,2,2,SIMILAR,C,,,2,1,0.09176,0,118,118,118,1,,
,,,,,,,,,,,,,,602bd3c3cfb313398f836c1a,001,2021-03-09_03h42.45.913,GuessTheSound,2020.2.10,Win32,60,,,,,,,,,,,,,,,SoundMST/Bagpipe.wav,1,1,OLD,C,,,1,1,0.20551,0,119,119,119,1,,
,,,,,,,,,,,,,,602bd3c3cfb313398f836c1a,001,2021-03-09_03h42.45.913,GuessTheSound,2020.2.10,Win32,60,,,,,,,,,,,,,,,SoundMST/Cough_F.wav,2,2,SIMILAR,C,,,2,1,1.3965,0,120,120,120,1,,
,,,,,,,,,,,,,,602bd3c3cfb313398f836c1a,001,2021-03-09_03h42.45.913,GuessTheSound,2020.2.10,Win32,60,,,,,,,,,,,,,,,SoundMST/Airplane_B.wav,1,1,OLD,C,,,1,1,0.411505,0,121,121,121,1,,
,,,,,,,,,,,,,,602bd3c3cfb313398f836c1a,001,2021-03-09_03h42.45.913,GuessTheSound,2020.2.10,Win32,60,,,,,,,,,,,,,,,SoundMST/DialTone.wav,1,1,OLD,C,,,1,1,0.17067,0,122,122,122,1,,
,,,,,,,,,,,,,,602bd3c3cfb313398f836c1a,001,2021-03-09_03h42.45.913,GuessTheSound,2020.2.10,Win32,60,,,,,,,,,,,,,,,SoundMST/Thunder_A.wav,1,1,OLD,C,,,1,1,0.34261,0,123,123,123,1,,
,,,,,,,,,,,,,,602bd3c3cfb313398f836c1a,001,2021-03-09_03h42.45.913,GuessTheSound,2020.2.10,Win32,60,,,,,,,,,,,,,,,SoundMST/Typing.wav,1,1,OLD,C,,,1,1,0.00056,0,124,124,124,1,,
,,,,,,,,,,,,,,602bd3c3cfb313398f836c1a,001,2021-03-09_03h42.45.913,GuessTheSound,2020.2.10,Win32,60,,,,,,,,,,,,,,,SoundMST/Snore_E.wav,2,2,SIMILAR,C,,,1,0,0.14133,0,125,125,125,1,,
,,,,,,,,,,,,,,602bd3c3cfb313398f836c1a,001,2021-03-09_03h42.45.913,GuessTheSound,2020.2.10,Win32,60,,,,,,,,,,,,,,,SoundMST/Heartbeat.wav,1,1,OLD,C,,,1,1,0.273815,0,126,126,126,1,,
,,,,,,,,,,,,,,602bd3c3cfb313398f836c1a,001,2021-03-09_03h42.45.913,GuessTheSound,2020.2.10,Win32,60,,,,,,,,,,,,,,,SoundMST/Steam.wav,1,1,OLD,C,,,1,1,0.29419,0,127,127,127,1,,
,,,,,,,,,,,,,,602bd3c3cfb313398f836c1a,001,2021-03-09_03h42.45.913,GuessTheSound,2020.2.10,Win32,60,,,,,,,,,,,,,,,,,,,,,,,,,,,,,,space,30.6436
