VolumeContinueKey.keys,VolumeContinueKey.rt,HeadphoneContinueKey.keys,HeadphoneContinueKey.rt,CheckResp.keys,CheckResp.corr,CheckResp.rt,HeadphoneLoop.thisRepN,HeadphoneLoop.thisTrialN,HeadphoneLoop.thisN,HeadphoneLoop.thisIndex,HeadphoneLoop.ran,File,Correct,participant,session,date,expName,psychopyVersion,OS,frameRate,ContinueResp.keys,ContinueResp.rt,Wel2ContinueKey.keys,Wel2ContinueKey.rt,WelcomeContinueKey2.keys,WelcomeContinueKey2.rt,Practice_resp.keys,Practice_resp.corr,Practice_resp.rt,PracticeTrials.thisRepN,PracticeTrials.thisTrialN,PracticeTrials.thisN,PracticeTrials.thisIndex,PracticeTrials.ran,SoundFile,Correct2,Type,Trial,StartTast.keys,StartTast.rt,MSTResp.keys,MSTResp.corr,MSTResp.rt,trials.thisRepN,trials.thisTrialN,trials.thisN,trials.thisIndex,trials.ran,ExitKey.keys,ExitKey.rt
space,7.465,space,13.34,1,1,1.564,0,0,0,1,1,Headphone/t1_2.wav,1,5ff0b85befea4044b6a00d64,001,2021-02-28_17h56.31.649,GuessTheSound,2020.2.10,Win32,60,,,,,,,,,,,,,,,,,,,,,,,,,,,,,,
,,,,1,1,0.767,0,1,1,0,1,Headphone/t1_1.wav,1,5ff0b85befea4044b6a00d64,001,2021-02-28_17h56.31.649,GuessTheSound,2020.2.10,Win32,60,,,,,,,,,,,,,,,,,,,,,,,,,,,,,,
,,,,2,1,0.487,0,2,2,2,1,Headphone/t2_1.wav,2,5ff0b85befea4044b6a00d64,001,2021-02-28_17h56.31.649,GuessTheSound,2020.2.10,Win32,60,,,,,,,,,,,,,,,,,,,,,,,,,,,,,,
,,,,3,1,0.556,0,3,3,5,1,Headphone/t3_2.wav,3,5ff0b85befea4044b6a00d64,001,2021-02-28_17h56.31.649,GuessTheSound,2020.2.10,Win32,60,,,,,,,,,,,,,,,,,,,,,,,,,,,,,,
,,,,2,1,0.418,0,4,4,3,1,Headphone/t2_2.wav,2,5ff0b85befea4044b6a00d64,001,2021-02-28_17h56.31.649,GuessTheSound,2020.2.10,Win32,60,,,,,,,,,,,,,,,,,,,,,,,,,,,,,,
,,,,3,1,0.135,0,5,5,4,1,Headphone/t3_1.wav,3,5ff0b85befea4044b6a00d64,001,2021-02-28_17h56.31.649,GuessTheSound,2020.2.10,Win32,60,,,,,,,,,,,,,,,,,,,,,,,,,,,,,,
,,,,,,,,,,,,,2,5ff0b85befea4044b6a00d64,001,2021-02-28_17h56.31.649,GuessTheSound,2020.2.10,Win32,60,space,11.026,space,23.376,space,3.56,3,1,3.243,0,0,0,0,1,Practice/Seagull_A.wav,3,NEW,Practice,,,,,,,,,,,,
,,,,,,,,,,,,,2,5ff0b85befea4044b6a00d64,001,2021-02-28_17h56.31.649,GuessTheSound,2020.2.10,Win32,60,,,,,,,3,1,0.921,0,1,1,1,1,Practice/Skid_B.wav,3,NEW,Practice,,,,,,,,,,,,
,,,,,,,,,,,,,1,5ff0b85befea4044b6a00d64,001,2021-02-28_17h56.31.649,GuessTheSound,2020.2.10,Win32,60,,,,,,,1,1,0.802,0,2,2,2,1,Practice/Seagull_A.wav,1,OLD,Practice,,,,,,,,,,,,
,,,,,,,,,,,,,2,5ff0b85befea4044b6a00d64,001,2021-02-28_17h56.31.649,GuessTheSound,2020.2.10,Win32,60,,,,,,,3,1,0.681,0,3,3,3,1,Practice/Gargle_A.wav,3,NEW,Practice,,,,,,,,,,,,
,,,,,,,,,,,,,2,5ff0b85befea4044b6a00d64,001,2021-02-28_17h56.31.649,GuessTheSound,2020.2.10,Win32,60,,,,,,,2,1,0.551,0,4,4,4,1,Practice/Gargle_B.wav,2,SIMILAR,Practice,,,,,,,,,,,,
,,,,,,,,,,,,,2,5ff0b85befea4044b6a00d64,001,2021-02-28_17h56.31.649,GuessTheSound,2020.2.10,Win32,60,,,,,,,,,,,,,,,Siren_E.wav,3,NEW,B,space,8.692,3,1,1.827,0,0,0,0,1,,
,,,,,,,,,,,,,2,5ff0b85befea4044b6a00d64,001,2021-02-28_17h56.31.649,GuessTheSound,2020.2.10,Win32,60,,,,,,,,,,,,,,,Initial/Repeat/ManWhistle.wav,3,NEW,B,,,3,1,0.667,0,1,1,1,1,,
,,,,,,,,,,,,,2,5ff0b85befea4044b6a00d64,001,2021-02-28_17h56.31.649,GuessTheSound,2020.2.10,Win32,60,,,,,,,,,,,,,,,Footsteps_E.wav,3,NEW,B,,,3,1,0.851,0,2,2,2,1,,
,,,,,,,,,,,,,2,5ff0b85befea4044b6a00d64,001,2021-02-28_17h56.31.649,GuessTheSound,2020.2.10,Win32,60,,,,,,,,,,,,,,,Initial/Doubled/Chicken_A.wav,3,NEW,B,,,3,1,0.468,0,3,3,3,1,,
,,,,,,,,,,,,,2,5ff0b85befea4044b6a00d64,001,2021-02-28_17h56.31.649,GuessTheSound,2020.2.10,Win32,60,,,,,,,,,,,,,,,Phone_D.wav,3,NEW,B,,,3,1,0.685,0,4,4,4,1,,
,,,,,,,,,,,,,2,5ff0b85befea4044b6a00d64,001,2021-02-28_17h56.31.649,GuessTheSound,2020.2.10,Win32,60,,,,,,,,,,,,,,,Initial/Repeat/Cup.wav,3,NEW,B,,,3,1,0.59,0,5,5,5,1,,
,,,,,,,,,,,,,2,5ff0b85befea4044b6a00d64,001,2021-02-28_17h56.31.649,GuessTheSound,2020.2.10,Win32,60,,,,,,,,,,,,,,,Test/Foils/Bowlingpins.wav,3,NEW,B,,,3,1,0.478,0,6,6,6,1,,
,,,,,,,,,,,,,2,5ff0b85befea4044b6a00d64,001,2021-02-28_17h56.31.649,GuessTheSound,2020.2.10,Win32,60,,,,,,,,,,,,,,,Bird_D.wav,3,NEW,B,,,3,1,0.557,0,7,7,7,1,,
,,,,,,,,,,,,,2,5ff0b85befea4044b6a00d64,001,2021-02-28_17h56.31.649,GuessTheSound,2020.2.10,Win32,60,,,,,,,,,,,,,,,Initial/Doubled/HairDryer_A.wav,3,NEW,B,,,3,1,0.517,0,8,8,8,1,,
,,,,,,,,,,,,,2,5ff0b85befea4044b6a00d64,001,2021-02-28_17h56.31.649,GuessTheSound,2020.2.10,Win32,60,,,,,,,,,,,,,,,Faucet_A.wav,3,NEW,B,,,3,1,0.629,0,9,9,9,1,,
,,,,,,,,,,,,,2,5ff0b85befea4044b6a00d64,001,2021-02-28_17h56.31.649,GuessTheSound,2020.2.10,Win32,60,,,,,,,,,,,,,,,Siren_B.wav,2,SIMILAR,B,,,1,0,0.719,0,10,10,10,1,,
,,,,,,,,,,,,,2,5ff0b85befea4044b6a00d64,001,2021-02-28_17h56.31.649,GuessTheSound,2020.2.10,Win32,60,,,,,,,,,,,,,,,Initial/Doubled/Laugh_A.wav,3,NEW,B,,,3,1,0.321,0,11,11,11,1,,
,,,,,,,,,,,,,1,5ff0b85befea4044b6a00d64,001,2021-02-28_17h56.31.649,GuessTheSound,2020.2.10,Win32,60,,,,,,,,,,,,,,,Initial/Repeat/ManWhistle.wav,1,OLD,B,,,1,1,0.894,0,12,12,12,1,,
,,,,,,,,,,,,,2,5ff0b85befea4044b6a00d64,001,2021-02-28_17h56.31.649,GuessTheSound,2020.2.10,Win32,60,,,,,,,,,,,,,,,Initial/NoRepeat/Cow.wav,3,NEW,B,,,3,1,1.236,0,13,13,13,1,,
,,,,,,,,,,,,,2,5ff0b85befea4044b6a00d64,001,2021-02-28_17h56.31.649,GuessTheSound,2020.2.10,Win32,60,,,,,,,,,,,,,,,Cough_A.wav,3,NEW,B,,,3,1,0.435,0,14,14,14,1,,
,,,,,,,,,,,,,2,5ff0b85befea4044b6a00d64,001,2021-02-28_17h56.31.649,GuessTheSound,2020.2.10,Win32,60,,,,,,,,,,,,,,,Initial/Repeat/Phone_A.wav,2,SIMILAR,B,,,1,0,3.767,0,15,15,15,1,,
,,,,,,,,,,,,,2,5ff0b85befea4044b6a00d64,001,2021-02-28_17h56.31.649,GuessTheSound,2020.2.10,Win32,60,,,,,,,,,,,,,,,Test/Lures/Chime_B.wav,3,NEW,B,,,3,1,0.602,0,16,16,16,1,,
,,,,,,,,,,,,,2,5ff0b85befea4044b6a00d64,001,2021-02-28_17h56.31.649,GuessTheSound,2020.2.10,Win32,60,,,,,,,,,,,,,,,Footsteps_F.wav,2,SIMILAR,B,,,2,1,0.775,0,17,17,17,1,,
,,,,,,,,,,,,,2,5ff0b85befea4044b6a00d64,001,2021-02-28_17h56.31.649,GuessTheSound,2020.2.10,Win32,60,,,,,,,,,,,,,,,Initial/NoRepeat/Toilet_B.wav,3,NEW,B,,,2,0,0.509,0,18,18,18,1,,
,,,,,,,,,,,,,2,5ff0b85befea4044b6a00d64,001,2021-02-28_17h56.31.649,GuessTheSound,2020.2.10,Win32,60,,,,,,,,,,,,,,,Piano_D.wav,3,NEW,B,,,3,1,0.606,0,19,19,19,1,,
,,,,,,,,,,,,,1,5ff0b85befea4044b6a00d64,001,2021-02-28_17h56.31.649,GuessTheSound,2020.2.10,Win32,60,,,,,,,,,,,,,,,Initial/Repeat/Cup.wav,1,OLD,B,,,1,1,0.352,0,20,20,20,1,,
,,,,,,,,,,,,,1,5ff0b85befea4044b6a00d64,001,2021-02-28_17h56.31.649,GuessTheSound,2020.2.10,Win32,60,,,,,,,,,,,,,,,Initial/Doubled/HairDryer_A.wav,1,OLD,B,,,1,1,0.501,0,21,21,21,1,,
,,,,,,,,,,,,,2,5ff0b85befea4044b6a00d64,001,2021-02-28_17h56.31.649,GuessTheSound,2020.2.10,Win32,60,,,,,,,,,,,,,,,Initial/NoRepeat/Thunder_A.wav,3,NEW,B,,,3,1,0.471,0,22,22,22,1,,
,,,,,,,,,,,,,1,5ff0b85befea4044b6a00d64,001,2021-02-28_17h56.31.649,GuessTheSound,2020.2.10,Win32,60,,,,,,,,,,,,,,,Initial/Doubled/Chicken_A.wav,1,OLD,B,,,1,1,0.969,0,23,23,23,1,,
,,,,,,,,,,,,,2,5ff0b85befea4044b6a00d64,001,2021-02-28_17h56.31.649,GuessTheSound,2020.2.10,Win32,60,,,,,,,,,,,,,,,Whistle_A.wav,3,NEW,B,,,3,1,0.388,0,24,24,24,1,,
,,,,,,,,,,,,,2,5ff0b85befea4044b6a00d64,001,2021-02-28_17h56.31.649,GuessTheSound,2020.2.10,Win32,60,,,,,,,,,,,,,,,Chick_A.wav,2,SIMILAR,B,,,2,1,2.039,0,25,25,25,1,,
,,,,,,,,,,,,,2,5ff0b85befea4044b6a00d64,001,2021-02-28_17h56.31.649,GuessTheSound,2020.2.10,Win32,60,,,,,,,,,,,,,,,Dog_E.wav,3,NEW,B,,,3,1,0.82,0,26,26,26,1,,
,,,,,,,,,,,,,1,5ff0b85befea4044b6a00d64,001,2021-02-28_17h56.31.649,GuessTheSound,2020.2.10,Win32,60,,,,,,,,,,,,,,,Test/Foils/Bowlingpins.wav,1,OLD,B,,,1,1,0.667,0,27,27,27,1,,
,,,,,,,,,,,,,2,5ff0b85befea4044b6a00d64,001,2021-02-28_17h56.31.649,GuessTheSound,2020.2.10,Win32,60,,,,,,,,,,,,,,,Initial/NoRepeat/Fireworks.wav,3,NEW,B,,,3,1,0.736,0,28,28,28,1,,
,,,,,,,,,,,,,1,5ff0b85befea4044b6a00d64,001,2021-02-28_17h56.31.649,GuessTheSound,2020.2.10,Win32,60,,,,,,,,,,,,,,,Initial/NoRepeat/Cow.wav,1,OLD,B,,,3,0,0.636,0,29,29,29,1,,
,,,,,,,,,,,,,2,5ff0b85befea4044b6a00d64,001,2021-02-28_17h56.31.649,GuessTheSound,2020.2.10,Win32,60,,,,,,,,,,,,,,,Snore_D.wav,3,NEW,B,,,3,1,0.6,0,30,30,30,1,,
,,,,,,,,,,,,,2,5ff0b85befea4044b6a00d64,001,2021-02-28_17h56.31.649,GuessTheSound,2020.2.10,Win32,60,,,,,,,,,,,,,,,Faucet_C.wav,2,SIMILAR,B,,,2,1,0.717,0,31,31,31,1,,
,,,,,,,,,,,,,2,5ff0b85befea4044b6a00d64,001,2021-02-28_17h56.31.649,GuessTheSound,2020.2.10,Win32,60,,,,,,,,,,,,,,,Initial/Doubled/Chime_A.wav,2,SIMILAR,B,,,2,1,2.793,0,32,32,32,1,,
,,,,,,,,,,,,,2,5ff0b85befea4044b6a00d64,001,2021-02-28_17h56.31.649,GuessTheSound,2020.2.10,Win32,60,,,,,,,,,,,,,,,Cough_E.wav,2,SIMILAR,B,,,1,0,0.305,0,33,33,33,1,,
,,,,,,,,,,,,,2,5ff0b85befea4044b6a00d64,001,2021-02-28_17h56.31.649,GuessTheSound,2020.2.10,Win32,60,,,,,,,,,,,,,,,Test/Foils/Heartbeat.wav,3,NEW,B,,,3,1,0.474,0,34,34,34,1,,
,,,,,,,,,,,,,2,5ff0b85befea4044b6a00d64,001,2021-02-28_17h56.31.649,GuessTheSound,2020.2.10,Win32,60,,,,,,,,,,,,,,,Laugh_D.wav,2,SIMILAR,B,,,2,1,0.822,0,35,35,35,1,,
,,,,,,,,,,,,,2,5ff0b85befea4044b6a00d64,001,2021-02-28_17h56.31.649,GuessTheSound,2020.2.10,Win32,60,,,,,,,,,,,,,,,Initial/Repeat/Cello.wav,3,NEW,B,,,3,1,1.036,0,36,36,36,1,,
,,,,,,,,,,,,,1,5ff0b85befea4044b6a00d64,001,2021-02-28_17h56.31.649,GuessTheSound,2020.2.10,Win32,60,,,,,,,,,,,,,,,Piano_D.wav,1,OLD,B,,,1,1,0.601,0,37,37,37,1,,
,,,,,,,,,,,,,2,5ff0b85befea4044b6a00d64,001,2021-02-28_17h56.31.649,GuessTheSound,2020.2.10,Win32,60,,,,,,,,,,,,,,,Clap_B.wav,3,NEW,B,,,2,0,0.534,0,38,38,38,1,,
,,,,,,,,,,,,,2,5ff0b85befea4044b6a00d64,001,2021-02-28_17h56.31.649,GuessTheSound,2020.2.10,Win32,60,,,,,,,,,,,,,,,Initial/Repeat/Bagpipe.wav,3,NEW,B,,,3,1,0.453,0,39,39,39,1,,
,,,,,,,,,,,,,2,5ff0b85befea4044b6a00d64,001,2021-02-28_17h56.31.649,GuessTheSound,2020.2.10,Win32,60,,,,,,,,,,,,,,,Growl_E.wav,3,NEW,B,,,3,1,0.619,0,40,40,40,1,,
,,,,,,,,,,,,,2,5ff0b85befea4044b6a00d64,001,2021-02-28_17h56.31.649,GuessTheSound,2020.2.10,Win32,60,,,,,,,,,,,,,,,Initial/Repeat/Airplane_B.wav,3,NEW,B,,,3,1,0.308,0,41,41,41,1,,
,,,,,,,,,,,,,1,5ff0b85befea4044b6a00d64,001,2021-02-28_17h56.31.649,GuessTheSound,2020.2.10,Win32,60,,,,,,,,,,,,,,,Initial/NoRepeat/Toilet_B.wav,1,OLD,B,,,2,0,0.4,0,42,42,42,1,,
,,,,,,,,,,,,,2,5ff0b85befea4044b6a00d64,001,2021-02-28_17h56.31.649,GuessTheSound,2020.2.10,Win32,60,,,,,,,,,,,,,,,Initial/NoRepeat/Hammer_A.wav,3,NEW,B,,,3,1,0.59,0,43,43,43,1,,
,,,,,,,,,,,,,2,5ff0b85befea4044b6a00d64,001,2021-02-28_17h56.31.649,GuessTheSound,2020.2.10,Win32,60,,,,,,,,,,,,,,,Goat_D.wav,3,NEW,B,,,3,1,0.269,0,44,44,44,1,,
,,,,,,,,,,,,,2,5ff0b85befea4044b6a00d64,001,2021-02-28_17h56.31.649,GuessTheSound,2020.2.10,Win32,60,,,,,,,,,,,,,,,Coin_D.wav,3,NEW,B,,,3,1,0.244,0,45,45,45,1,,
,,,,,,,,,,,,,1,5ff0b85befea4044b6a00d64,001,2021-02-28_17h56.31.649,GuessTheSound,2020.2.10,Win32,60,,,,,,,,,,,,,,,Initial/NoRepeat/Fireworks.wav,1,OLD,B,,,1,1,0.484,0,46,46,46,1,,
,,,,,,,,,,,,,2,5ff0b85befea4044b6a00d64,001,2021-02-28_17h56.31.649,GuessTheSound,2020.2.10,Win32,60,,,,,,,,,,,,,,,Test/Foils/Donkey.wav,3,NEW,B,,,3,1,0.901,0,47,47,47,1,,
,,,,,,,,,,,,,2,5ff0b85befea4044b6a00d64,001,2021-02-28_17h56.31.649,GuessTheSound,2020.2.10,Win32,60,,,,,,,,,,,,,,,Initial/Repeat/Howl.wav,3,NEW,B,,,3,1,0.463,0,48,48,48,1,,
,,,,,,,,,,,,,1,5ff0b85befea4044b6a00d64,001,2021-02-28_17h56.31.649,GuessTheSound,2020.2.10,Win32,60,,,,,,,,,,,,,,,Initial/NoRepeat/Thunder_A.wav,1,OLD,B,,,3,0,0.452,0,49,49,49,1,,
,,,,,,,,,,,,,2,5ff0b85befea4044b6a00d64,001,2021-02-28_17h56.31.649,GuessTheSound,2020.2.10,Win32,60,,,,,,,,,,,,,,,Whistle_C.wav,2,SIMILAR,B,,,2,1,2.653,0,50,50,50,1,,
,,,,,,,,,,,,,2,5ff0b85befea4044b6a00d64,001,2021-02-28_17h56.31.649,GuessTheSound,2020.2.10,Win32,60,,,,,,,,,,,,,,,Initial/NoRepeat/Helicopter_A.wav,3,NEW,B,,,3,1,0.453,0,51,51,51,1,,
,,,,,,,,,,,,,2,5ff0b85befea4044b6a00d64,001,2021-02-28_17h56.31.649,GuessTheSound,2020.2.10,Win32,60,,,,,,,,,,,,,,,Dog_F.wav,2,SIMILAR,B,,,2,1,2.794,0,52,52,52,1,,
,,,,,,,,,,,,,2,5ff0b85befea4044b6a00d64,001,2021-02-28_17h56.31.649,GuessTheSound,2020.2.10,Win32,60,,,,,,,,,,,,,,,Test/Foils/Horse.wav,3,NEW,B,,,3,1,0.402,0,53,53,53,1,,
,,,,,,,,,,,,,2,5ff0b85befea4044b6a00d64,001,2021-02-28_17h56.31.649,GuessTheSound,2020.2.10,Win32,60,,,,,,,,,,,,,,,Initial/Doubled/Chomp_A.wav,3,NEW,B,,,3,1,0.269,0,54,54,54,1,,
,,,,,,,,,,,,,1,5ff0b85befea4044b6a00d64,001,2021-02-28_17h56.31.649,GuessTheSound,2020.2.10,Win32,60,,,,,,,,,,,,,,,Test/Foils/Heartbeat.wav,1,OLD,B,,,1,1,0.291,0,55,55,55,1,,
,,,,,,,,,,,,,2,5ff0b85befea4044b6a00d64,001,2021-02-28_17h56.31.649,GuessTheSound,2020.2.10,Win32,60,,,,,,,,,,,,,,,Clap_C.wav,2,SIMILAR,B,,,2,1,1.31,0,56,56,56,1,,
,,,,,,,,,,,,,2,5ff0b85befea4044b6a00d64,001,2021-02-28_17h56.31.649,GuessTheSound,2020.2.10,Win32,60,,,,,,,,,,,,,,,Crow_B.wav,3,NEW,B,,,1,0,0.401,0,57,57,57,1,,
,,,,,,,,,,,,,2,5ff0b85befea4044b6a00d64,001,2021-02-28_17h56.31.649,GuessTheSound,2020.2.10,Win32,60,,,,,,,,,,,,,,,Growl_F.wav,2,SIMILAR,B,,,2,1,0.851,0,58,58,58,1,,
,,,,,,,,,,,,,2,5ff0b85befea4044b6a00d64,001,2021-02-28_17h56.31.649,GuessTheSound,2020.2.10,Win32,60,,,,,,,,,,,,,,,Initial/Repeat/Printer.wav,3,NEW,B,,,3,1,0.539,0,59,59,59,1,,
,,,,,,,,,,,,,1,5ff0b85befea4044b6a00d64,001,2021-02-28_17h56.31.649,GuessTheSound,2020.2.10,Win32,60,,,,,,,,,,,,,,,Initial/Repeat/Cello.wav,1,OLD,B,,,1,1,0.39,0,60,60,60,1,,
,,,,,,,,,,,,,2,5ff0b85befea4044b6a00d64,001,2021-02-28_17h56.31.649,GuessTheSound,2020.2.10,Win32,60,,,,,,,,,,,,,,,Snore_C.wav,2,SIMILAR,B,,,3,0,0.387,0,61,61,61,1,,
,,,,,,,,,,,,,2,5ff0b85befea4044b6a00d64,001,2021-02-28_17h56.31.649,GuessTheSound,2020.2.10,Win32,60,,,,,,,,,,,,,,,CarStart_F.wav,3,NEW,B,,,3,1,0.534,0,62,62,62,1,,
,,,,,,,,,,,,,2,5ff0b85befea4044b6a00d64,001,2021-02-28_17h56.31.649,GuessTheSound,2020.2.10,Win32,60,,,,,,,,,,,,,,,Goat_C.wav,2,SIMILAR,B,,,3,0,0.339,0,63,63,63,1,,
,,,,,,,,,,,,,2,5ff0b85befea4044b6a00d64,001,2021-02-28_17h56.31.649,GuessTheSound,2020.2.10,Win32,60,,,,,,,,,,,,,,,Coin_E.wav,2,SIMILAR,B,,,1,0,0.625,0,64,64,64,1,,
,,,,,,,,,,,,,1,5ff0b85befea4044b6a00d64,001,2021-02-28_17h56.31.649,GuessTheSound,2020.2.10,Win32,60,,,,,,,,,,,,,,,Initial/Repeat/Howl.wav,1,OLD,B,,,3,0,0.477,0,65,65,65,1,,
,,,,,,,,,,,,,1,5ff0b85befea4044b6a00d64,001,2021-02-28_17h56.31.649,GuessTheSound,2020.2.10,Win32,60,,,,,,,,,,,,,,,Initial/Repeat/Airplane_B.wav,1,OLD,B,,,1,1,0.285,0,66,66,66,1,,
,,,,,,,,,,,,,1,5ff0b85befea4044b6a00d64,001,2021-02-28_17h56.31.649,GuessTheSound,2020.2.10,Win32,60,,,,,,,,,,,,,,,Initial/NoRepeat/Mosquito_B.wav,1,OLD,B,,,3,0,0.301,0,67,67,67,1,,
,,,,,,,,,,,,,2,5ff0b85befea4044b6a00d64,001,2021-02-28_17h56.31.649,GuessTheSound,2020.2.10,Win32,60,,,,,,,,,,,,,,,Initial/NoRepeat/Droplet_B.wav,3,NEW,B,,,3,1,0.267,0,68,68,68,1,,
,,,,,,,,,,,,,1,5ff0b85befea4044b6a00d64,001,2021-02-28_17h56.31.649,GuessTheSound,2020.2.10,Win32,60,,,,,,,,,,,,,,,Test/Foils/Donkey.wav,1,OLD,B,,,3,0,0.402,0,69,69,69,1,,
,,,,,,,,,,,,,2,5ff0b85befea4044b6a00d64,001,2021-02-28_17h56.31.649,GuessTheSound,2020.2.10,Win32,60,,,,,,,,,,,,,,,Test/Lures/Guitar_B.wav,3,NEW,B,,,3,1,0.369,0,70,70,70,1,,
,,,,,,,,,,,,,1,5ff0b85befea4044b6a00d64,001,2021-02-28_17h56.31.649,GuessTheSound,2020.2.10,Win32,60,,,,,,,,,,,,,,,Initial/Repeat/Bagpipe.wav,1,OLD,B,,,1,1,0.285,0,71,71,71,1,,
,,,,,,,,,,,,,2,5ff0b85befea4044b6a00d64,001,2021-02-28_17h56.31.649,GuessTheSound,2020.2.10,Win32,60,,,,,,,,,,,,,,,Initial/NoRepeat/Hammer_A.wav,3,NEW,B,,,3,1,1.542,0,72,72,72,1,,
,,,,,,,,,,,,,1,5ff0b85befea4044b6a00d64,001,2021-02-28_17h56.31.649,GuessTheSound,2020.2.10,Win32,60,,,,,,,,,,,,,,,Initial/NoRepeat/Helicopter_A.wav,1,OLD,B,,,1,1,0.118,0,73,73,73,1,,
,,,,,,,,,,,,,2,5ff0b85befea4044b6a00d64,001,2021-02-28_17h56.31.649,GuessTheSound,2020.2.10,Win32,60,,,,,,,,,,,,,,,Test/Foils/Camera.wav,3,NEW,B,,,3,1,0.285,0,74,74,74,1,,
,,,,,,,,,,,,,2,5ff0b85befea4044b6a00d64,001,2021-02-28_17h56.31.649,GuessTheSound,2020.2.10,Win32,60,,,,,,,,,,,,,,,Test/Foils/Steam.wav,3,NEW,B,,,3,1,0.402,0,75,75,75,1,,
,,,,,,,,,,,,,1,5ff0b85befea4044b6a00d64,001,2021-02-28_17h56.31.649,GuessTheSound,2020.2.10,Win32,60,,,,,,,,,,,,,,,Test/Foils/Horse.wav,1,OLD,B,,,3,0,0.236,0,76,76,76,1,,
,,,,,,,,,,,,,2,5ff0b85befea4044b6a00d64,001,2021-02-28_17h56.31.649,GuessTheSound,2020.2.10,Win32,60,,,,,,,,,,,,,,,Elephant_C.wav,3,NEW,B,,,3,1,0.301,0,77,77,77,1,,
,,,,,,,,,,,,,1,5ff0b85befea4044b6a00d64,001,2021-02-28_17h56.31.649,GuessTheSound,2020.2.10,Win32,60,,,,,,,,,,,,,,,Initial/Repeat/Printer.wav,1,OLD,B,,,1,1,0.284,0,78,78,78,1,,
,,,,,,,,,,,,,2,5ff0b85befea4044b6a00d64,001,2021-02-28_17h56.31.649,GuessTheSound,2020.2.10,Win32,60,,,,,,,,,,,,,,,Crow_A.wav,2,SIMILAR,B,,,1,0,0.302,0,79,79,79,1,,
,,,,,,,,,,,,,2,5ff0b85befea4044b6a00d64,001,2021-02-28_17h56.31.649,GuessTheSound,2020.2.10,Win32,60,,,,,,,,,,,,,,,Initial/Doubled/Bubbles_A.wav,3,NEW,B,,,3,1,0.085,0,80,80,80,1,,
,,,,,,,,,,,,,2,5ff0b85befea4044b6a00d64,001,2021-02-28_17h56.31.649,GuessTheSound,2020.2.10,Win32,60,,,,,,,,,,,,,,,Chomp_E.wav,2,SIMILAR,B,,,3,0,0.302,0,81,81,81,1,,
,,,,,,,,,,,,,2,5ff0b85befea4044b6a00d64,001,2021-02-28_17h56.31.649,GuessTheSound,2020.2.10,Win32,60,,,,,,,,,,,,,,,Test/Foils/Airhorn.wav,3,NEW,B,,,3,1,0.269,0,82,82,82,1,,
,,,,,,,,,,,,,2,5ff0b85befea4044b6a00d64,001,2021-02-28_17h56.31.649,GuessTheSound,2020.2.10,Win32,60,,,,,,,,,,,,,,,Initial/Doubled/Writing_A.wav,3,NEW,B,,,3,1,0.269,0,83,83,83,1,,
,,,,,,,,,,,,,2,5ff0b85befea4044b6a00d64,001,2021-02-28_17h56.31.649,GuessTheSound,2020.2.10,Win32,60,,,,,,,,,,,,,,,Initial/Doubled/Cuckoo_A.wav,3,NEW,B,,,3,1,0.269,0,84,84,84,1,,
,,,,,,,,,,,,,2,5ff0b85befea4044b6a00d64,001,2021-02-28_17h56.31.649,GuessTheSound,2020.2.10,Win32,60,,,,,,,,,,,,,,,Initial/Repeat/IceDrop.wav,3,NEW,B,,,3,1,0.307,0,85,85,85,1,,
,,,,,,,,,,,,,2,5ff0b85befea4044b6a00d64,001,2021-02-28_17h56.31.649,GuessTheSound,2020.2.10,Win32,60,,,,,,,,,,,,,,,CarStart_E.wav,2,SIMILAR,B,,,2,1,0.334,0,86,86,86,1,,
,,,,,,,,,,,,,2,5ff0b85befea4044b6a00d64,001,2021-02-28_17h56.31.649,GuessTheSound,2020.2.10,Win32,60,,,,,,,,,,,,,,,Baby_F.wav,3,NEW,B,,,3,1,0.307,0,87,87,87,1,,
,,,,,,,,,,,,,2,5ff0b85befea4044b6a00d64,001,2021-02-28_17h56.31.649,GuessTheSound,2020.2.10,Win32,60,,,,,,,,,,,,,,,Initial/NoRepeat/Puff_A.wav,3,NEW,B,,,3,1,0.169,0,88,88,88,1,,
,,,,,,,,,,,,,1,5ff0b85befea4044b6a00d64,001,2021-02-28_17h56.31.649,GuessTheSound,2020.2.10,Win32,60,,,,,,,,,,,,,,,Initial/NoRepeat/Droplet_B.wav,1,OLD,B,,,1,1,0.286,0,89,89,89,1,,
,,,,,,,,,,,,,1,5ff0b85befea4044b6a00d64,001,2021-02-28_17h56.31.649,GuessTheSound,2020.2.10,Win32,60,,,,,,,,,,,,,,,Test/Lures/Guitar_B.wav,1,OLD,B,,,1,1,0.302,0,90,90,90,1,,
,,,,,,,,,,,,,2,5ff0b85befea4044b6a00d64,001,2021-02-28_17h56.31.649,GuessTheSound,2020.2.10,Win32,60,,,,,,,,,,,,,,,Initial/Repeat/PaperRip.wav,3,NEW,B,,,3,1,0.486,0,91,91,91,1,,
,,,,,,,,,,,,,1,5ff0b85befea4044b6a00d64,001,2021-02-28_17h56.31.649,GuessTheSound,2020.2.10,Win32,60,,,,,,,,,,,,,,,Initial/NoRepeat/Mosquito_B.wav,1,OLD,B,,,1,1,0.24,0,92,92,92,1,,
,,,,,,,,,,,,,2,5ff0b85befea4044b6a00d64,001,2021-02-28_17h56.31.649,GuessTheSound,2020.2.10,Win32,60,,,,,,,,,,,,,,,Initial/Repeat/Trumpet_B.wav,3,NEW,B,,,3,1,0.389,0,93,93,93,1,,
,,,,,,,,,,,,,2,5ff0b85befea4044b6a00d64,001,2021-02-28_17h56.31.649,GuessTheSound,2020.2.10,Win32,60,,,,,,,,,,,,,,,Test/Foils/Bullfrog.wav,3,NEW,B,,,3,1,0.46,0,94,94,94,1,,
,,,,,,,,,,,,,2,5ff0b85befea4044b6a00d64,001,2021-02-28_17h56.31.649,GuessTheSound,2020.2.10,Win32,60,,,,,,,,,,,,,,,Elephant_D.wav,2,SIMILAR,B,,,2,1,2.192,0,95,95,95,1,,
,,,,,,,,,,,,,2,5ff0b85befea4044b6a00d64,001,2021-02-28_17h56.31.649,GuessTheSound,2020.2.10,Win32,60,,,,,,,,,,,,,,,Initial/Repeat/Sneeze_B.wav,3,NEW,B,,,3,1,0.371,0,96,96,96,1,,
,,,,,,,,,,,,,1,5ff0b85befea4044b6a00d64,001,2021-02-28_17h56.31.649,GuessTheSound,2020.2.10,Win32,60,,,,,,,,,,,,,,,Test/Foils/Camera.wav,1,OLD,B,,,1,1,0.318,0,97,97,97,1,,
,,,,,,,,,,,,,2,5ff0b85befea4044b6a00d64,001,2021-02-28_17h56.31.649,GuessTheSound,2020.2.10,Win32,60,,,,,,,,,,,,,,,Initial/Doubled/Cat_A.wav,3,NEW,B,,,3,1,0.224,0,98,98,98,1,,
,,,,,,,,,,,,,1,5ff0b85befea4044b6a00d64,001,2021-02-28_17h56.31.649,GuessTheSound,2020.2.10,Win32,60,,,,,,,,,,,,,,,Test/Foils/Steam.wav,1,OLD,B,,,1,1,0.242,0,99,99,99,1,,
,,,,,,,,,,,,,2,5ff0b85befea4044b6a00d64,001,2021-02-28_17h56.31.649,GuessTheSound,2020.2.10,Win32,60,,,,,,,,,,,,,,,Writing_C.wav,2,SIMILAR,B,,,1,0,0.285,0,100,100,100,1,,
,,,,,,,,,,,,,1,5ff0b85befea4044b6a00d64,001,2021-02-28_17h56.31.649,GuessTheSound,2020.2.10,Win32,60,,,,,,,,,,,,,,,Initial/Repeat/IceDrop.wav,1,OLD,B,,,1,1,0.36,0,101,101,101,1,,
,,,,,,,,,,,,,2,5ff0b85befea4044b6a00d64,001,2021-02-28_17h56.31.649,GuessTheSound,2020.2.10,Win32,60,,,,,,,,,,,,,,,Test/Foils/Slurp.wav,3,NEW,B,,,3,1,0.304,0,102,102,102,1,,
,,,,,,,,,,,,,2,5ff0b85befea4044b6a00d64,001,2021-02-28_17h56.31.649,GuessTheSound,2020.2.10,Win32,60,,,,,,,,,,,,,,,Baby_E.wav,2,SIMILAR,B,,,2,1,0.818,0,103,103,103,1,,
,,,,,,,,,,,,,2,5ff0b85befea4044b6a00d64,001,2021-02-28_17h56.31.649,GuessTheSound,2020.2.10,Win32,60,,,,,,,,,,,,,,,Test/Foils/DialTone.wav,3,NEW,B,,,3,1,0.091,0,104,104,104,1,,
,,,,,,,,,,,,,1,5ff0b85befea4044b6a00d64,001,2021-02-28_17h56.31.649,GuessTheSound,2020.2.10,Win32,60,,,,,,,,,,,,,,,Initial/NoRepeat/Puff_A.wav,1,OLD,B,,,1,1,0.31,0,105,105,105,1,,
,,,,,,,,,,,,,2,5ff0b85befea4044b6a00d64,001,2021-02-28_17h56.31.649,GuessTheSound,2020.2.10,Win32,60,,,,,,,,,,,,,,,Initial/Repeat/Buzz.wav,3,NEW,B,,,3,1,0.5,0,106,106,106,1,,
,,,,,,,,,,,,,1,5ff0b85befea4044b6a00d64,001,2021-02-28_17h56.31.649,GuessTheSound,2020.2.10,Win32,60,,,,,,,,,,,,,,,Test/Foils/Airhorn.wav,1,OLD,B,,,1,1,0.204,0,107,107,107,1,,
,,,,,,,,,,,,,2,5ff0b85befea4044b6a00d64,001,2021-02-28_17h56.31.649,GuessTheSound,2020.2.10,Win32,60,,,,,,,,,,,,,,,Initial/NoRepeat/Sleighbells_B.wav,3,NEW,B,,,3,1,0.334,0,108,108,108,1,,
,,,,,,,,,,,,,1,5ff0b85befea4044b6a00d64,001,2021-02-28_17h56.31.649,GuessTheSound,2020.2.10,Win32,60,,,,,,,,,,,,,,,Initial/Doubled/Cuckoo_A.wav,1,OLD,B,,,1,1,0.318,0,109,109,109,1,,
,,,,,,,,,,,,,2,5ff0b85befea4044b6a00d64,001,2021-02-28_17h56.31.649,GuessTheSound,2020.2.10,Win32,60,,,,,,,,,,,,,,,Test/Foils/Wind_B.wav,3,NEW,B,,,3,1,0.419,0,110,110,110,1,,
,,,,,,,,,,,,,2,5ff0b85befea4044b6a00d64,001,2021-02-28_17h56.31.649,GuessTheSound,2020.2.10,Win32,60,,,,,,,,,,,,,,,Test/Foils/Typing.wav,3,NEW,B,,,3,1,0.336,0,111,111,111,1,,
,,,,,,,,,,,,,2,5ff0b85befea4044b6a00d64,001,2021-02-28_17h56.31.649,GuessTheSound,2020.2.10,Win32,60,,,,,,,,,,,,,,,Test/Lures/Bubbles_B.wav,2,SIMILAR,B,,,2,1,0.288,0,112,112,112,1,,
,,,,,,,,,,,,,2,5ff0b85befea4044b6a00d64,001,2021-02-28_17h56.31.649,GuessTheSound,2020.2.10,Win32,60,,,,,,,,,,,,,,,Duck_A.wav,3,NEW,B,,,3,1,0.271,0,113,113,113,1,,
,,,,,,,,,,,,,1,5ff0b85befea4044b6a00d64,001,2021-02-28_17h56.31.649,GuessTheSound,2020.2.10,Win32,60,,,,,,,,,,,,,,,Initial/Repeat/Trumpet_B.wav,1,OLD,B,,,1,1,0.251,0,114,114,114,1,,
,,,,,,,,,,,,,1,5ff0b85befea4044b6a00d64,001,2021-02-28_17h56.31.649,GuessTheSound,2020.2.10,Win32,60,,,,,,,,,,,,,,,Initial/Repeat/PaperRip.wav,1,OLD,B,,,1,1,0.287,0,115,115,115,1,,
,,,,,,,,,,,,,1,5ff0b85befea4044b6a00d64,001,2021-02-28_17h56.31.649,GuessTheSound,2020.2.10,Win32,60,,,,,,,,,,,,,,,Initial/Repeat/Sneeze_B.wav,1,OLD,B,,,2,0,0.353,0,116,116,116,1,,
,,,,,,,,,,,,,2,5ff0b85befea4044b6a00d64,001,2021-02-28_17h56.31.649,GuessTheSound,2020.2.10,Win32,60,,,,,,,,,,,,,,,Initial/Repeat/Pour.wav,3,NEW,B,,,3,1,0.304,0,117,117,117,1,,
,,,,,,,,,,,,,1,5ff0b85befea4044b6a00d64,001,2021-02-28_17h56.31.649,GuessTheSound,2020.2.10,Win32,60,,,,,,,,,,,,,,,Initial/Doubled/Cat_A.wav,1,OLD,B,,,1,1,0.252,0,118,118,118,1,,
,,,,,,,,,,,,,1,5ff0b85befea4044b6a00d64,001,2021-02-28_17h56.31.649,GuessTheSound,2020.2.10,Win32,60,,,,,,,,,,,,,,,Test/Foils/Slurp.wav,1,OLD,B,,,1,1,0.325,0,119,119,119,1,,
,,,,,,,,,,,,,1,5ff0b85befea4044b6a00d64,001,2021-02-28_17h56.31.649,GuessTheSound,2020.2.10,Win32,60,,,,,,,,,,,,,,,Test/Foils/Bullfrog.wav,1,OLD,B,,,1,1,0.953,0,120,120,120,1,,
,,,,,,,,,,,,,1,5ff0b85befea4044b6a00d64,001,2021-02-28_17h56.31.649,GuessTheSound,2020.2.10,Win32,60,,,,,,,,,,,,,,,Test/Foils/Wind_B.wav,1,OLD,B,,,1,1,0.468,0,121,121,121,1,,
,,,,,,,,,,,,,2,5ff0b85befea4044b6a00d64,001,2021-02-28_17h56.31.649,GuessTheSound,2020.2.10,Win32,60,,,,,,,,,,,,,,,Duck_B.wav,2,SIMILAR,B,,,2,1,0.351,0,122,122,122,1,,
,,,,,,,,,,,,,1,5ff0b85befea4044b6a00d64,001,2021-02-28_17h56.31.649,GuessTheSound,2020.2.10,Win32,60,,,,,,,,,,,,,,,Test/Foils/DialTone.wav,1,OLD,B,,,1,1,0.37,0,123,123,123,1,,
,,,,,,,,,,,,,1,5ff0b85befea4044b6a00d64,001,2021-02-28_17h56.31.649,GuessTheSound,2020.2.10,Win32,60,,,,,,,,,,,,,,,Initial/Repeat/Buzz.wav,1,OLD,B,,,1,1,0.359,0,124,124,124,1,,
,,,,,,,,,,,,,2,5ff0b85befea4044b6a00d64,001,2021-02-28_17h56.31.649,GuessTheSound,2020.2.10,Win32,60,,,,,,,,,,,,,,,Pour_C.wav,2,SIMILAR,B,,,2,1,0.352,0,125,125,125,1,,
,,,,,,,,,,,,,1,5ff0b85befea4044b6a00d64,001,2021-02-28_17h56.31.649,GuessTheSound,2020.2.10,Win32,60,,,,,,,,,,,,,,,Test/Foils/Typing.wav,1,OLD,B,,,1,1,0.302,0,126,126,126,1,,
,,,,,,,,,,,,,1,5ff0b85befea4044b6a00d64,001,2021-02-28_17h56.31.649,GuessTheSound,2020.2.10,Win32,60,,,,,,,,,,,,,,,Initial/NoRepeat/Sleighbells_B.wav,1,OLD,B,,,1,1,0.444,0,127,127,127,1,,
,,,,,,,,,,,,,,5ff0b85befea4044b6a00d64,001,2021-02-28_17h56.31.649,GuessTheSound,2020.2.10,Win32,60,,,,,,,,,,,,,,,,,,,,,,,,,,,,,space,11.579
