VolumeContinueKey.keys,VolumeContinueKey.rt,HeadphoneContinueKey.keys,HeadphoneContinueKey.rt,CheckResp.keys,CheckResp.corr,CheckResp.rt,trials_2.thisRepN,trials_2.thisTrialN,trials_2.thisN,trials_2.thisIndex,trials_2.ran,File,Correct,participant,date,expName,psychopyVersion,OS,frameRate,key_resp_2.keys,key_resp_2.rt,key_resp_3.keys,key_resp_3.rt,WelcomeContinueKey2.keys,WelcomeContinueKey2.rt,Practice_resp.keys,Practice_resp.corr,Practice_resp.rt,PracticeLoop.thisRepN,PracticeLoop.thisTrialN,PracticeLoop.thisN,PracticeLoop.thisIndex,PracticeLoop.ran,SoundFile,SoundCorrect,Correct2,SoundType,Trial,StartTast.keys,StartTast.rt,key_resp.keys,key_resp.corr,key_resp.rt,trials.thisRepN,trials.thisTrialN,trials.thisN,trials.thisIndex,trials.ran,ExitKey.keys,ExitKey.rt
space,8.74525,space,31.318195,1,1,1.1823,0,0,0,0,1,Headphone/t1_1.wav,1,Alberto,2021-03-20_00h29.55.671,GuessTheSound,2020.2.10,Win32,60,,,,,,,,,,,,,,,,,,,,,,,,,,,,,,,
,,,,2,1,0.483115,0,1,1,3,1,Headphone/t2_2.wav,2,Alberto,2021-03-20_00h29.55.671,GuessTheSound,2020.2.10,Win32,60,,,,,,,,,,,,,,,,,,,,,,,,,,,,,,,
,,,,2,1,0.368995,0,2,2,2,1,Headphone/t2_1.wav,2,Alberto,2021-03-20_00h29.55.671,GuessTheSound,2020.2.10,Win32,60,,,,,,,,,,,,,,,,,,,,,,,,,,,,,,,
,,,,3,1,0.42661,0,3,3,5,1,Headphone/t3_2.wav,3,Alberto,2021-03-20_00h29.55.671,GuessTheSound,2020.2.10,Win32,60,,,,,,,,,,,,,,,,,,,,,,,,,,,,,,,
,,,,3,1,0.30296,0,4,4,4,1,Headphone/t3_1.wav,3,Alberto,2021-03-20_00h29.55.671,GuessTheSound,2020.2.10,Win32,60,,,,,,,,,,,,,,,,,,,,,,,,,,,,,,,
,,,,2,0,7.616425,0,5,5,1,1,Headphone/t1_2.wav,1,Alberto,2021-03-20_00h29.55.671,GuessTheSound,2020.2.10,Win32,60,,,,,,,,,,,,,,,,,,,,,,,,,,,,,,,
,,,,,,,,,,,,,,Alberto,2021-03-20_00h29.55.671,GuessTheSound,2020.2.10,Win32,60,space,63.277335,space,15.62175,space,8.234595,2,1,15.98477,0,0,0,0,1,Practice/Seagull_A.wav,2,3,NEW,Practice,,,,,,,,,,,,
,,,,,,,,,,,,,,Alberto,2021-03-20_00h29.55.671,GuessTheSound,2020.2.10,Win32,60,,,,,,,2,1,3.58767,0,1,1,1,1,Practice/Skid_B.wav,2,3,NEW,Practice,,,,,,,,,,,,
,,,,,,,,,,,,,,Alberto,2021-03-20_00h29.55.671,GuessTheSound,2020.2.10,Win32,60,,,,,,,1,1,0.781425,0,2,2,2,1,Practice/Seagull_A.wav,1,1,OLD,Practice,,,,,,,,,,,,
,,,,,,,,,,,,,,Alberto,2021-03-20_00h29.55.671,GuessTheSound,2020.2.10,Win32,60,,,,,,,2,1,0.452115,0,3,3,3,1,Practice/Gargle_A.wav,2,3,NEW,Practice,,,,,,,,,,,,
,,,,,,,,,,,,,,Alberto,2021-03-20_00h29.55.671,GuessTheSound,2020.2.10,Win32,60,,,,,,,2,1,0.38992,0,4,4,4,1,Practice/Gargle_B.wav,2,2,SIMILAR,Practice,,,,,,,,,,,,
,,,,,,,,,,,,,,Alberto,2021-03-20_00h29.55.671,GuessTheSound,2020.2.10,Win32,60,,,,,,,,,,,,,,,SoundMST/CarStart_E.wav,2,3,NEW,C,space,4.302625,2,1,1.09855,0,0,0,0,1,,
,,,,,,,,,,,,,,Alberto,2021-03-20_00h29.55.671,GuessTheSound,2020.2.10,Win32,60,,,,,,,,,,,,,,,SoundMST/Bird_E.wav,2,3,NEW,C,,,2,1,0.59215,0,1,1,1,1,,
,,,,,,,,,,,,,,Alberto,2021-03-20_00h29.55.671,GuessTheSound,2020.2.10,Win32,60,,,,,,,,,,,,,,,SoundMST/Bubbles_A.wav,2,3,NEW,C,,,2,1,0.27374,0,2,2,2,1,,
,,,,,,,,,,,,,,Alberto,2021-03-20_00h29.55.671,GuessTheSound,2020.2.10,Win32,60,,,,,,,,,,,,,,,SoundMST/Horse.wav,2,3,NEW,C,,,2,1,0.237105,0,3,3,3,1,,
,,,,,,,,,,,,,,Alberto,2021-03-20_00h29.55.671,GuessTheSound,2020.2.10,Win32,60,,,,,,,,,,,,,,,SoundMST/IceDrop.wav,2,3,NEW,C,,,2,1,0.311385,0,4,4,4,1,,
,,,,,,,,,,,,,,Alberto,2021-03-20_00h29.55.671,GuessTheSound,2020.2.10,Win32,60,,,,,,,,,,,,,,,SoundMST/Sleighbells_B.wav,2,3,NEW,C,,,2,1,0.321135,0,5,5,5,1,,
,,,,,,,,,,,,,,Alberto,2021-03-20_00h29.55.671,GuessTheSound,2020.2.10,Win32,60,,,,,,,,,,,,,,,SoundMST/Growl_G.wav,2,3,NEW,C,,,2,1,0.313205,0,6,6,6,1,,
,,,,,,,,,,,,,,Alberto,2021-03-20_00h29.55.671,GuessTheSound,2020.2.10,Win32,60,,,,,,,,,,,,,,,SoundMST/Chicken_A.wav,2,3,NEW,C,,,2,1,0.125535,0,7,7,7,1,,
,,,,,,,,,,,,,,Alberto,2021-03-20_00h29.55.671,GuessTheSound,2020.2.10,Win32,60,,,,,,,,,,,,,,,SoundMST/Slurp.wav,2,3,NEW,C,,,2,1,0.285625,0,8,8,8,1,,
,,,,,,,,,,,,,,Alberto,2021-03-20_00h29.55.671,GuessTheSound,2020.2.10,Win32,60,,,,,,,,,,,,,,,SoundMST/CarStart_A.wav,2,2,SIMILAR,C,,,2,1,0.27864,0,9,9,9,1,,
,,,,,,,,,,,,,,Alberto,2021-03-20_00h29.55.671,GuessTheSound,2020.2.10,Win32,60,,,,,,,,,,,,,,,SoundMST/Printer.wav,2,3,NEW,C,,,2,1,0.104805,0,10,10,10,1,,
,,,,,,,,,,,,,,Alberto,2021-03-20_00h29.55.671,GuessTheSound,2020.2.10,Win32,60,,,,,,,,,,,,,,,SoundMST/Bowlingpins.wav,2,3,NEW,C,,,2,1,0.12853,0,11,11,11,1,,
,,,,,,,,,,,,,,Alberto,2021-03-20_00h29.55.671,GuessTheSound,2020.2.10,Win32,60,,,,,,,,,,,,,,,SoundMST/Fireworks.wav,2,3,NEW,C,,,2,1,0.510585,0,12,12,12,1,,
,,,,,,,,,,,,,,Alberto,2021-03-20_00h29.55.671,GuessTheSound,2020.2.10,Win32,60,,,,,,,,,,,,,,,SoundMST/Howl.wav,2,3,NEW,C,,,2,1,0.0633,0,13,13,13,1,,
,,,,,,,,,,,,,,Alberto,2021-03-20_00h29.55.671,GuessTheSound,2020.2.10,Win32,60,,,,,,,,,,,,,,,SoundMST/Goat_B.wav,2,3,NEW,C,,,2,1,0.20165,0,14,14,14,1,,
,,,,,,,,,,,,,,Alberto,2021-03-20_00h29.55.671,GuessTheSound,2020.2.10,Win32,60,,,,,,,,,,,,,,,SoundMST/Horse.wav,1,1,OLD,C,,,1,1,0.24767,0,15,15,15,1,,
,,,,,,,,,,,,,,Alberto,2021-03-20_00h29.55.671,GuessTheSound,2020.2.10,Win32,60,,,,,,,,,,,,,,,SoundMST/Laugh_A.wav,2,3,NEW,C,,,2,1,0.230045,0,16,16,16,1,,
,,,,,,,,,,,,,,Alberto,2021-03-20_00h29.55.671,GuessTheSound,2020.2.10,Win32,60,,,,,,,,,,,,,,,SoundMST/Bubbles_B.wav,2,2,SIMILAR,C,,,1,0,0.584495,0,17,17,17,1,,
,,,,,,,,,,,,,,Alberto,2021-03-20_00h29.55.671,GuessTheSound,2020.2.10,Win32,60,,,,,,,,,,,,,,,SoundMST/Footsteps_C.wav,2,3,NEW,C,,,2,1,0.3621,0,18,18,18,1,,
,,,,,,,,,,,,,,Alberto,2021-03-20_00h29.55.671,GuessTheSound,2020.2.10,Win32,60,,,,,,,,,,,,,,,SoundMST/Duck_C.wav,2,3,NEW,C,,,2,1,1.453385,0,19,19,19,1,,
,,,,,,,,,,,,,,Alberto,2021-03-20_00h29.55.671,GuessTheSound,2020.2.10,Win32,60,,,,,,,,,,,,,,,SoundMST/Cow.wav,2,3,NEW,C,,,2,1,0.36382,0,20,20,20,1,,
,,,,,,,,,,,,,,Alberto,2021-03-20_00h29.55.671,GuessTheSound,2020.2.10,Win32,60,,,,,,,,,,,,,,,SoundMST/Airhorn.wav,2,3,NEW,C,,,1,0,5.450445,0,21,21,21,1,,
,,,,,,,,,,,,,,Alberto,2021-03-20_00h29.55.671,GuessTheSound,2020.2.10,Win32,60,,,,,,,,,,,,,,,SoundMST/Printer.wav,1,1,OLD,C,,,1,1,0.2582,0,22,22,22,1,,
,,,,,,,,,,,,,,Alberto,2021-03-20_00h29.55.671,GuessTheSound,2020.2.10,Win32,60,,,,,,,,,,,,,,,SoundMST/Sleighbells_B.wav,1,1,OLD,C,,,1,1,0.74131,0,23,23,23,1,,
,,,,,,,,,,,,,,Alberto,2021-03-20_00h29.55.671,GuessTheSound,2020.2.10,Win32,60,,,,,,,,,,,,,,,SoundMST/Camera.wav,2,3,NEW,C,,,2,1,0.65448,0,24,24,24,1,,
,,,,,,,,,,,,,,Alberto,2021-03-20_00h29.55.671,GuessTheSound,2020.2.10,Win32,60,,,,,,,,,,,,,,,SoundMST/Growl_H.wav,2,2,SIMILAR,C,,,1,0,0.2803,0,25,25,25,1,,
,,,,,,,,,,,,,,Alberto,2021-03-20_00h29.55.671,GuessTheSound,2020.2.10,Win32,60,,,,,,,,,,,,,,,SoundMST/Whistle_B.wav,2,3,NEW,C,,,2,1,0.35434,0,26,26,26,1,,
,,,,,,,,,,,,,,Alberto,2021-03-20_00h29.55.671,GuessTheSound,2020.2.10,Win32,60,,,,,,,,,,,,,,,SoundMST/Piano_D.wav,2,3,NEW,C,,,2,1,0.049475,0,27,27,27,1,,
,,,,,,,,,,,,,,Alberto,2021-03-20_00h29.55.671,GuessTheSound,2020.2.10,Win32,60,,,,,,,,,,,,,,,SoundMST/Coin_D.wav,2,3,NEW,C,,,1,0,0.844185,0,28,28,28,1,,
,,,,,,,,,,,,,,Alberto,2021-03-20_00h29.55.671,GuessTheSound,2020.2.10,Win32,60,,,,,,,,,,,,,,,SoundMST/Bird_A.wav,2,2,SIMILAR,C,,,1,0,0.26442,0,29,29,29,1,,
,,,,,,,,,,,,,,Alberto,2021-03-20_00h29.55.671,GuessTheSound,2020.2.10,Win32,60,,,,,,,,,,,,,,,SoundMST/PaperRip.wav,2,3,NEW,C,,,2,1,0.53578,0,30,30,30,1,,
,,,,,,,,,,,,,,Alberto,2021-03-20_00h29.55.671,GuessTheSound,2020.2.10,Win32,60,,,,,,,,,,,,,,,SoundMST/Slurp.wav,1,1,OLD,C,,,2,0,0.369035,0,31,31,31,1,,
,,,,,,,,,,,,,,Alberto,2021-03-20_00h29.55.671,GuessTheSound,2020.2.10,Win32,60,,,,,,,,,,,,,,,SoundMST/Howl.wav,1,1,OLD,C,,,1,1,0.097645,0,32,32,32,1,,
,,,,,,,,,,,,,,Alberto,2021-03-20_00h29.55.671,GuessTheSound,2020.2.10,Win32,60,,,,,,,,,,,,,,,SoundMST/IceDrop.wav,1,1,OLD,C,,,1,1,0.396535,0,33,33,33,1,,
,,,,,,,,,,,,,,Alberto,2021-03-20_00h29.55.671,GuessTheSound,2020.2.10,Win32,60,,,,,,,,,,,,,,,SoundMST/Pour_B.wav,2,3,NEW,C,,,2,1,0.423025,0,34,34,34,1,,
,,,,,,,,,,,,,,Alberto,2021-03-20_00h29.55.671,GuessTheSound,2020.2.10,Win32,60,,,,,,,,,,,,,,,SoundMST/Fireworks.wav,1,1,OLD,C,,,1,1,0.5496,0,35,35,35,1,,
,,,,,,,,,,,,,,Alberto,2021-03-20_00h29.55.671,GuessTheSound,2020.2.10,Win32,60,,,,,,,,,,,,,,,SoundMST/Footsteps_F.wav,2,2,SIMILAR,C,,,2,1,1.43279,0,36,36,36,1,,
,,,,,,,,,,,,,,Alberto,2021-03-20_00h29.55.671,GuessTheSound,2020.2.10,Win32,60,,,,,,,,,,,,,,,SoundMST/Chicken_A.wav,1,1,OLD,C,,,1,1,0.417485,0,37,37,37,1,,
,,,,,,,,,,,,,,Alberto,2021-03-20_00h29.55.671,GuessTheSound,2020.2.10,Win32,60,,,,,,,,,,,,,,,SoundMST/Bullfrog.wav,2,3,NEW,C,,,2,1,0.84158,0,38,38,38,1,,
,,,,,,,,,,,,,,Alberto,2021-03-20_00h29.55.671,GuessTheSound,2020.2.10,Win32,60,,,,,,,,,,,,,,,SoundMST/Bowlingpins.wav,1,1,OLD,C,,,1,1,0.60526,0,39,39,39,1,,
,,,,,,,,,,,,,,Alberto,2021-03-20_00h29.55.671,GuessTheSound,2020.2.10,Win32,60,,,,,,,,,,,,,,,SoundMST/Helicopter_A.wav,2,3,NEW,C,,,2,1,2.40372,0,40,40,40,1,,
,,,,,,,,,,,,,,Alberto,2021-03-20_00h29.55.671,GuessTheSound,2020.2.10,Win32,60,,,,,,,,,,,,,,,SoundMST/Goat_C.wav,2,2,SIMILAR,C,,,1,0,0.38885,0,41,41,41,1,,
,,,,,,,,,,,,,,Alberto,2021-03-20_00h29.55.671,GuessTheSound,2020.2.10,Win32,60,,,,,,,,,,,,,,,SoundMST/HairDryer_A.wav,2,3,NEW,C,,,2,1,0.723325,0,42,42,42,1,,
,,,,,,,,,,,,,,Alberto,2021-03-20_00h29.55.671,GuessTheSound,2020.2.10,Win32,60,,,,,,,,,,,,,,,SoundMST/Duck_D.wav,2,2,SIMILAR,C,,,1,0,0.30184,0,43,43,43,1,,
,,,,,,,,,,,,,,Alberto,2021-03-20_00h29.55.671,GuessTheSound,2020.2.10,Win32,60,,,,,,,,,,,,,,,SoundMST/PaperRip.wav,1,1,OLD,C,,,1,1,1.119835,0,44,44,44,1,,
,,,,,,,,,,,,,,Alberto,2021-03-20_00h29.55.671,GuessTheSound,2020.2.10,Win32,60,,,,,,,,,,,,,,,SoundMST/Dog_H.wav,2,3,NEW,C,,,2,1,0.271545,0,45,45,45,1,,
,,,,,,,,,,,,,,Alberto,2021-03-20_00h29.55.671,GuessTheSound,2020.2.10,Win32,60,,,,,,,,,,,,,,,SoundMST/Camera.wav,1,1,OLD,C,,,1,1,0.920905,0,46,46,46,1,,
,,,,,,,,,,,,,,Alberto,2021-03-20_00h29.55.671,GuessTheSound,2020.2.10,Win32,60,,,,,,,,,,,,,,,SoundMST/Laugh_D.wav,2,2,SIMILAR,C,,,1,0,0.74433,0,47,47,47,1,,
,,,,,,,,,,,,,,Alberto,2021-03-20_00h29.55.671,GuessTheSound,2020.2.10,Win32,60,,,,,,,,,,,,,,,SoundMST/Sneeze_B.wav,2,3,NEW,C,,,2,1,0.61231,0,48,48,48,1,,
,,,,,,,,,,,,,,Alberto,2021-03-20_00h29.55.671,GuessTheSound,2020.2.10,Win32,60,,,,,,,,,,,,,,,SoundMST/Cow.wav,1,1,OLD,C,,,1,1,0.0143,0,49,49,49,1,,
,,,,,,,,,,,,,,Alberto,2021-03-20_00h29.55.671,GuessTheSound,2020.2.10,Win32,60,,,,,,,,,,,,,,,SoundMST/Donkey.wav,2,3,NEW,C,,,2,1,0.431865,0,50,50,50,1,,
,,,,,,,,,,,,,,Alberto,2021-03-20_00h29.55.671,GuessTheSound,2020.2.10,Win32,60,,,,,,,,,,,,,,,SoundMST/Coin_E.wav,2,2,SIMILAR,C,,,2,1,1.543565,0,51,51,51,1,,
,,,,,,,,,,,,,,Alberto,2021-03-20_00h29.55.671,GuessTheSound,2020.2.10,Win32,60,,,,,,,,,,,,,,,SoundMST/Buzz.wav,2,3,NEW,C,,,1,0,0.32006,0,52,52,52,1,,
,,,,,,,,,,,,,,Alberto,2021-03-20_00h29.55.671,GuessTheSound,2020.2.10,Win32,60,,,,,,,,,,,,,,,SoundMST/Piano_D.wav,1,1,OLD,C,,,1,1,0.41761,0,53,53,53,1,,
,,,,,,,,,,,,,,Alberto,2021-03-20_00h29.55.671,GuessTheSound,2020.2.10,Win32,60,,,,,,,,,,,,,,,SoundMST/Hammer_A.wav,2,3,NEW,C,,,2,1,1.02628,0,54,54,54,1,,
,,,,,,,,,,,,,,Alberto,2021-03-20_00h29.55.671,GuessTheSound,2020.2.10,Win32,60,,,,,,,,,,,,,,,SoundMST/Airhorn.wav,1,1,OLD,C,,,2,0,2.16966,0,55,55,55,1,,
,,,,,,,,,,,,,,Alberto,2021-03-20_00h29.55.671,GuessTheSound,2020.2.10,Win32,60,,,,,,,,,,,,,,,SoundMST/Whistle_C.wav,2,2,SIMILAR,C,,,1,0,0.40441,0,56,56,56,1,,
,,,,,,,,,,,,,,Alberto,2021-03-20_00h29.55.671,GuessTheSound,2020.2.10,Win32,60,,,,,,,,,,,,,,,SoundMST/Faucet_A.wav,2,3,NEW,C,,,2,1,0.35491,0,57,57,57,1,,
,,,,,,,,,,,,,,Alberto,2021-03-20_00h29.55.671,GuessTheSound,2020.2.10,Win32,60,,,,,,,,,,,,,,,SoundMST/Pour_C.wav,2,2,SIMILAR,C,,,1,0,0.32028,0,58,58,58,1,,
,,,,,,,,,,,,,,Alberto,2021-03-20_00h29.55.671,GuessTheSound,2020.2.10,Win32,60,,,,,,,,,,,,,,,SoundMST/Crow_B.wav,2,3,NEW,C,,,2,1,0.292365,0,59,59,59,1,,
,,,,,,,,,,,,,,Alberto,2021-03-20_00h29.55.671,GuessTheSound,2020.2.10,Win32,60,,,,,,,,,,,,,,,SoundMST/Trumpet_B.wav,2,3,NEW,C,,,2,1,0.695715,0,60,60,60,1,,
,,,,,,,,,,,,,,Alberto,2021-03-20_00h29.55.671,GuessTheSound,2020.2.10,Win32,60,,,,,,,,,,,,,,,SoundMST/Bullfrog.wav,1,1,OLD,C,,,1,1,0.331885,0,61,61,61,1,,
,,,,,,,,,,,,,,Alberto,2021-03-20_00h29.55.671,GuessTheSound,2020.2.10,Win32,60,,,,,,,,,,,,,,,SoundMST/Helicopter_A.wav,1,1,OLD,C,,,1,1,0.322785,0,62,62,62,1,,
,,,,,,,,,,,,,,Alberto,2021-03-20_00h29.55.671,GuessTheSound,2020.2.10,Win32,60,,,,,,,,,,,,,,,SoundMST/Elephant_C.wav,2,3,NEW,C,,,2,1,0.946055,0,63,63,63,1,,
,,,,,,,,,,,,,,Alberto,2021-03-20_00h29.55.671,GuessTheSound,2020.2.10,Win32,60,,,,,,,,,,,,,,,SoundMST/Sneeze_B.wav,1,1,OLD,C,,,1,1,4.31747,0,64,64,64,1,,
,,,,,,,,,,,,,,Alberto,2021-03-20_00h29.55.671,GuessTheSound,2020.2.10,Win32,60,,,,,,,,,,,,,,,SoundMST/Chime_B.wav,2,3,NEW,C,,,1,0,0.396545,0,65,65,65,1,,
,,,,,,,,,,,,,,Alberto,2021-03-20_00h29.55.671,GuessTheSound,2020.2.10,Win32,60,,,,,,,,,,,,,,,SoundMST/Phone_D.wav,2,3,NEW,C,,,2,1,1.289815,0,66,66,66,1,,
,,,,,,,,,,,,,,Alberto,2021-03-20_00h29.55.671,GuessTheSound,2020.2.10,Win32,60,,,,,,,,,,,,,,,SoundMST/HairDryer_A.wav,1,1,OLD,C,,,1,1,0.29921,0,67,67,67,1,,
,,,,,,,,,,,,,,Alberto,2021-03-20_00h29.55.671,GuessTheSound,2020.2.10,Win32,60,,,,,,,,,,,,,,,SoundMST/Puff_A.wav,2,3,NEW,C,,,2,1,0.35127,0,68,68,68,1,,
,,,,,,,,,,,,,,Alberto,2021-03-20_00h29.55.671,GuessTheSound,2020.2.10,Win32,60,,,,,,,,,,,,,,,SoundMST/Dog_F.wav,2,2,SIMILAR,C,,,2,1,1.71563,0,69,69,69,1,,
,,,,,,,,,,,,,,Alberto,2021-03-20_00h29.55.671,GuessTheSound,2020.2.10,Win32,60,,,,,,,,,,,,,,,SoundMST/Donkey.wav,1,1,OLD,C,,,1,1,0.707925,0,70,70,70,1,,
,,,,,,,,,,,,,,Alberto,2021-03-20_00h29.55.671,GuessTheSound,2020.2.10,Win32,60,,,,,,,,,,,,,,,SoundMST/Toilet_B.wav,2,3,NEW,C,,,2,1,0.806475,0,71,71,71,1,,
,,,,,,,,,,,,,,Alberto,2021-03-20_00h29.55.671,GuessTheSound,2020.2.10,Win32,60,,,,,,,,,,,,,,,SoundMST/Writing_A.wav,2,3,NEW,C,,,1,0,0.966675,0,72,72,72,1,,
,,,,,,,,,,,,,,Alberto,2021-03-20_00h29.55.671,GuessTheSound,2020.2.10,Win32,60,,,,,,,,,,,,,,,SoundMST/Cello.wav,2,3,NEW,C,,,2,1,0.24378,0,73,73,73,1,,
,,,,,,,,,,,,,,Alberto,2021-03-20_00h29.55.671,GuessTheSound,2020.2.10,Win32,60,,,,,,,,,,,,,,,SoundMST/Crow_A.wav,2,2,SIMILAR,C,,,1,0,0.333795,0,74,74,74,1,,
,,,,,,,,,,,,,,Alberto,2021-03-20_00h29.55.671,GuessTheSound,2020.2.10,Win32,60,,,,,,,,,,,,,,,SoundMST/Hammer_A.wav,1,1,OLD,C,,,1,1,0.43175,0,75,75,75,1,,
,,,,,,,,,,,,,,Alberto,2021-03-20_00h29.55.671,GuessTheSound,2020.2.10,Win32,60,,,,,,,,,,,,,,,SoundMST/Cuckoo_A.wav,2,3,NEW,C,,,2,1,0.19195,0,76,76,76,1,,
,,,,,,,,,,,,,,Alberto,2021-03-20_00h29.55.671,GuessTheSound,2020.2.10,Win32,60,,,,,,,,,,,,,,,SoundMST/Buzz.wav,1,1,OLD,C,,,1,1,2.66287,0,77,77,77,1,,
,,,,,,,,,,,,,,Alberto,2021-03-20_00h29.55.671,GuessTheSound,2020.2.10,Win32,60,,,,,,,,,,,,,,,SoundMST/Siren_E.wav,2,3,NEW,C,,,2,1,0.77931,0,78,78,78,1,,
,,,,,,,,,,,,,,Alberto,2021-03-20_00h29.55.671,GuessTheSound,2020.2.10,Win32,60,,,,,,,,,,,,,,,SoundMST/Trumpet_B.wav,1,1,OLD,C,,,1,1,0.756,0,79,79,79,1,,
,,,,,,,,,,,,,,Alberto,2021-03-20_00h29.55.671,GuessTheSound,2020.2.10,Win32,60,,,,,,,,,,,,,,,SoundMST/Wind_B.wav,2,3,NEW,C,,,2,1,4.278285,0,80,80,80,1,,
,,,,,,,,,,,,,,Alberto,2021-03-20_00h29.55.671,GuessTheSound,2020.2.10,Win32,60,,,,,,,,,,,,,,,SoundMST/Cat_A.wav,2,3,NEW,C,,,2,1,3.274705,0,81,81,81,1,,
,,,,,,,,,,,,,,Alberto,2021-03-20_00h29.55.671,GuessTheSound,2020.2.10,Win32,60,,,,,,,,,,,,,,,SoundMST/Phone_E.wav,2,2,SIMILAR,C,,,1,0,0.531985,0,82,82,82,1,,
,,,,,,,,,,,,,,Alberto,2021-03-20_00h29.55.671,GuessTheSound,2020.2.10,Win32,60,,,,,,,,,,,,,,,SoundMST/Chomp_A.wav,2,3,NEW,C,,,2,1,0.372285,0,83,83,83,1,,
,,,,,,,,,,,,,,Alberto,2021-03-20_00h29.55.671,GuessTheSound,2020.2.10,Win32,60,,,,,,,,,,,,,,,SoundMST/Elephant_A.wav,2,2,SIMILAR,C,,,2,1,1.03649,0,84,84,84,1,,
,,,,,,,,,,,,,,Alberto,2021-03-20_00h29.55.671,GuessTheSound,2020.2.10,Win32,60,,,,,,,,,,,,,,,SoundMST/Cup.wav,2,3,NEW,C,,,2,1,0.35519,0,85,85,85,1,,
,,,,,,,,,,,,,,Alberto,2021-03-20_00h29.55.671,GuessTheSound,2020.2.10,Win32,60,,,,,,,,,,,,,,,SoundMST/Chime_A.wav,2,2,SIMILAR,C,,,1,0,0.313145,0,86,86,86,1,,
,,,,,,,,,,,,,,Alberto,2021-03-20_00h29.55.671,GuessTheSound,2020.2.10,Win32,60,,,,,,,,,,,,,,,SoundMST/Droplet_B.wav,2,3,NEW,C,,,2,1,0.260275,0,87,87,87,1,,
,,,,,,,,,,,,,,Alberto,2021-03-20_00h29.55.671,GuessTheSound,2020.2.10,Win32,60,,,,,,,,,,,,,,,SoundMST/Faucet_C.wav,2,2,SIMILAR,C,,,2,1,0.662355,0,88,88,88,1,,
,,,,,,,,,,,,,,Alberto,2021-03-20_00h29.55.671,GuessTheSound,2020.2.10,Win32,60,,,,,,,,,,,,,,,SoundMST/Puff_A.wav,1,1,OLD,C,,,1,1,0.29418,0,89,89,89,1,,
,,,,,,,,,,,,,,Alberto,2021-03-20_00h29.55.671,GuessTheSound,2020.2.10,Win32,60,,,,,,,,,,,,,,,SoundMST/Clap_B.wav,2,3,NEW,C,,,1,0,2.431385,0,90,90,90,1,,
,,,,,,,,,,,,,,Alberto,2021-03-20_00h29.55.671,GuessTheSound,2020.2.10,Win32,60,,,,,,,,,,,,,,,SoundMST/Cello.wav,1,1,OLD,C,,,2,0,0.5147,0,91,91,91,1,,
,,,,,,,,,,,,,,Alberto,2021-03-20_00h29.55.671,GuessTheSound,2020.2.10,Win32,60,,,,,,,,,,,,,,,SoundMST/Mosquito_B.wav,2,3,NEW,C,,,2,1,0.29436,0,92,92,92,1,,
,,,,,,,,,,,,,,Alberto,2021-03-20_00h29.55.671,GuessTheSound,2020.2.10,Win32,60,,,,,,,,,,,,,,,SoundMST/Writing_C.wav,2,2,SIMILAR,C,,,2,1,0.43268,0,93,93,93,1,,
,,,,,,,,,,,,,,Alberto,2021-03-20_00h29.55.671,GuessTheSound,2020.2.10,Win32,60,,,,,,,,,,,,,,,SoundMST/Guitar_B.wav,2,3,NEW,C,,,2,1,0.395755,0,94,94,94,1,,
,,,,,,,,,,,,,,Alberto,2021-03-20_00h29.55.671,GuessTheSound,2020.2.10,Win32,60,,,,,,,,,,,,,,,SoundMST/Toilet_B.wav,1,1,OLD,C,,,1,1,0.462175,0,95,95,95,1,,
,,,,,,,,,,,,,,Alberto,2021-03-20_00h29.55.671,GuessTheSound,2020.2.10,Win32,60,,,,,,,,,,,,,,,SoundMST/Bagpipe.wav,2,3,NEW,C,,,2,1,0.19621,0,96,96,96,1,,
,,,,,,,,,,,,,,Alberto,2021-03-20_00h29.55.671,GuessTheSound,2020.2.10,Win32,60,,,,,,,,,,,,,,,SoundMST/Cuckoo_A.wav,1,1,OLD,C,,,1,1,0.74638,0,97,97,97,1,,
,,,,,,,,,,,,,,Alberto,2021-03-20_00h29.55.671,GuessTheSound,2020.2.10,Win32,60,,,,,,,,,,,,,,,SoundMST/Wind_B.wav,1,1,OLD,C,,,1,1,0.323985,0,98,98,98,1,,
,,,,,,,,,,,,,,Alberto,2021-03-20_00h29.55.671,GuessTheSound,2020.2.10,Win32,60,,,,,,,,,,,,,,,SoundMST/Cough_D.wav,2,3,NEW,C,,,2,1,0.314835,0,99,99,99,1,,
,,,,,,,,,,,,,,Alberto,2021-03-20_00h29.55.671,GuessTheSound,2020.2.10,Win32,60,,,,,,,,,,,,,,,SoundMST/ManWhistle.wav,2,3,NEW,C,,,2,1,0.287315,0,100,100,100,1,,
,,,,,,,,,,,,,,Alberto,2021-03-20_00h29.55.671,GuessTheSound,2020.2.10,Win32,60,,,,,,,,,,,,,,,SoundMST/Chomp_C.wav,2,2,SIMILAR,C,,,2,1,1.443975,0,101,101,101,1,,
,,,,,,,,,,,,,,Alberto,2021-03-20_00h29.55.671,GuessTheSound,2020.2.10,Win32,60,,,,,,,,,,,,,,,SoundMST/Siren_A.wav,2,2,SIMILAR,C,,,2,1,0.25928,0,102,102,102,1,,
,,,,,,,,,,,,,,Alberto,2021-03-20_00h29.55.671,GuessTheSound,2020.2.10,Win32,60,,,,,,,,,,,,,,,SoundMST/Thunder_A.wav,2,3,NEW,C,,,2,1,0.33636,0,103,103,103,1,,
,,,,,,,,,,,,,,Alberto,2021-03-20_00h29.55.671,GuessTheSound,2020.2.10,Win32,60,,,,,,,,,,,,,,,SoundMST/Cat_A.wav,1,1,OLD,C,,,2,0,1.147595,0,104,104,104,1,,
,,,,,,,,,,,,,,Alberto,2021-03-20_00h29.55.671,GuessTheSound,2020.2.10,Win32,60,,,,,,,,,,,,,,,SoundMST/Snore_C.wav,2,3,NEW,C,,,2,1,0.41058,0,105,105,105,1,,
,,,,,,,,,,,,,,Alberto,2021-03-20_00h29.55.671,GuessTheSound,2020.2.10,Win32,60,,,,,,,,,,,,,,,SoundMST/Cup.wav,1,1,OLD,C,,,1,1,0.292155,0,106,106,106,1,,
,,,,,,,,,,,,,,Alberto,2021-03-20_00h29.55.671,GuessTheSound,2020.2.10,Win32,60,,,,,,,,,,,,,,,SoundMST/Baby_F.wav,2,3,NEW,C,,,2,1,0.965615,0,107,107,107,1,,
,,,,,,,,,,,,,,Alberto,2021-03-20_00h29.55.671,GuessTheSound,2020.2.10,Win32,60,,,,,,,,,,,,,,,SoundMST/Droplet_B.wav,1,1,OLD,C,,,1,1,1.56443,0,108,108,108,1,,
,,,,,,,,,,,,,,Alberto,2021-03-20_00h29.55.671,GuessTheSound,2020.2.10,Win32,60,,,,,,,,,,,,,,,SoundMST/DialTone.wav,2,3,NEW,C,,,2,1,4.712375,0,109,109,109,1,,
,,,,,,,,,,,,,,Alberto,2021-03-20_00h29.55.671,GuessTheSound,2020.2.10,Win32,60,,,,,,,,,,,,,,,SoundMST/Clap_C.wav,2,2,SIMILAR,C,,,2,1,2.398645,0,110,110,110,1,,
,,,,,,,,,,,,,,Alberto,2021-03-20_00h29.55.671,GuessTheSound,2020.2.10,Win32,60,,,,,,,,,,,,,,,SoundMST/Heartbeat.wav,2,3,NEW,C,,,2,1,0.15342,0,111,111,111,1,,
,,,,,,,,,,,,,,Alberto,2021-03-20_00h29.55.671,GuessTheSound,2020.2.10,Win32,60,,,,,,,,,,,,,,,SoundMST/Guitar_B.wav,1,1,OLD,C,,,1,1,0.300775,0,112,112,112,1,,
,,,,,,,,,,,,,,Alberto,2021-03-20_00h29.55.671,GuessTheSound,2020.2.10,Win32,60,,,,,,,,,,,,,,,SoundMST/Typing.wav,2,3,NEW,C,,,2,1,0.312685,0,113,113,113,1,,
,,,,,,,,,,,,,,Alberto,2021-03-20_00h29.55.671,GuessTheSound,2020.2.10,Win32,60,,,,,,,,,,,,,,,SoundMST/Mosquito_B.wav,1,1,OLD,C,,,1,1,0.382785,0,114,114,114,1,,
,,,,,,,,,,,,,,Alberto,2021-03-20_00h29.55.671,GuessTheSound,2020.2.10,Win32,60,,,,,,,,,,,,,,,SoundMST/Airplane_B.wav,2,3,NEW,C,,,2,1,0.354665,0,115,115,115,1,,
,,,,,,,,,,,,,,Alberto,2021-03-20_00h29.55.671,GuessTheSound,2020.2.10,Win32,60,,,,,,,,,,,,,,,SoundMST/ManWhistle.wav,1,1,OLD,C,,,1,1,1.375235,0,116,116,116,1,,
,,,,,,,,,,,,,,Alberto,2021-03-20_00h29.55.671,GuessTheSound,2020.2.10,Win32,60,,,,,,,,,,,,,,,SoundMST/Steam.wav,2,3,NEW,C,,,2,1,0.624625,0,117,117,117,1,,
,,,,,,,,,,,,,,Alberto,2021-03-20_00h29.55.671,GuessTheSound,2020.2.10,Win32,60,,,,,,,,,,,,,,,SoundMST/Baby_E.wav,2,2,SIMILAR,C,,,2,1,1.48265,0,118,118,118,1,,
,,,,,,,,,,,,,,Alberto,2021-03-20_00h29.55.671,GuessTheSound,2020.2.10,Win32,60,,,,,,,,,,,,,,,SoundMST/Bagpipe.wav,1,1,OLD,C,,,1,1,0.77164,0,119,119,119,1,,
,,,,,,,,,,,,,,Alberto,2021-03-20_00h29.55.671,GuessTheSound,2020.2.10,Win32,60,,,,,,,,,,,,,,,SoundMST/Cough_F.wav,2,2,SIMILAR,C,,,1,0,1.194805,0,120,120,120,1,,
,,,,,,,,,,,,,,Alberto,2021-03-20_00h29.55.671,GuessTheSound,2020.2.10,Win32,60,,,,,,,,,,,,,,,SoundMST/Airplane_B.wav,1,1,OLD,C,,,1,1,1.051565,0,121,121,121,1,,
,,,,,,,,,,,,,,Alberto,2021-03-20_00h29.55.671,GuessTheSound,2020.2.10,Win32,60,,,,,,,,,,,,,,,SoundMST/DialTone.wav,1,1,OLD,C,,,1,1,0.16094,0,122,122,122,1,,
,,,,,,,,,,,,,,Alberto,2021-03-20_00h29.55.671,GuessTheSound,2020.2.10,Win32,60,,,,,,,,,,,,,,,SoundMST/Thunder_A.wav,1,1,OLD,C,,,1,1,0.33561,0,123,123,123,1,,
,,,,,,,,,,,,,,Alberto,2021-03-20_00h29.55.671,GuessTheSound,2020.2.10,Win32,60,,,,,,,,,,,,,,,SoundMST/Typing.wav,1,1,OLD,C,,,1,1,0.30785,0,124,124,124,1,,
,,,,,,,,,,,,,,Alberto,2021-03-20_00h29.55.671,GuessTheSound,2020.2.10,Win32,60,,,,,,,,,,,,,,,SoundMST/Snore_E.wav,2,2,SIMILAR,C,,,2,1,0.49408,0,125,125,125,1,,
,,,,,,,,,,,,,,Alberto,2021-03-20_00h29.55.671,GuessTheSound,2020.2.10,Win32,60,,,,,,,,,,,,,,,SoundMST/Heartbeat.wav,1,1,OLD,C,,,1,1,0.334755,0,126,126,126,1,,
,,,,,,,,,,,,,,Alberto,2021-03-20_00h29.55.671,GuessTheSound,2020.2.10,Win32,60,,,,,,,,,,,,,,,SoundMST/Steam.wav,1,1,OLD,C,,,1,1,0.31951,0,127,127,127,1,,
,,,,,,,,,,,,,,Alberto,2021-03-20_00h29.55.671,GuessTheSound,2020.2.10,Win32,60,,,,,,,,,,,,,,,SoundMST/Airplane_B.wav,2,3,NEW,D,,,2,1,1.93706,0,128,128,128,1,,
,,,,,,,,,,,,,,Alberto,2021-03-20_00h29.55.671,GuessTheSound,2020.2.10,Win32,60,,,,,,,,,,,,,,,,,,,,,,,,,,,,,,space,31.0464
