VolumeContinueKey.keys,VolumeContinueKey.rt,HeadphoneContinueKey.keys,HeadphoneContinueKey.rt,CheckResp.keys,CheckResp.corr,CheckResp.rt,trials_2.thisRepN,trials_2.thisTrialN,trials_2.thisN,trials_2.thisIndex,trials_2.ran,File,Correct,participant,date,expName,psychopyVersion,OS,frameRate,key_resp_2.keys,key_resp_2.rt,key_resp_3.keys,key_resp_3.rt,WelcomeContinueKey2.keys,WelcomeContinueKey2.rt,Practice_resp.keys,Practice_resp.corr,Practice_resp.rt,PracticeLoop.thisRepN,PracticeLoop.thisTrialN,PracticeLoop.thisN,PracticeLoop.thisIndex,PracticeLoop.ran,SoundFile,SoundCorrect,Correct2,SoundType,Trial,StartTast.keys,StartTast.rt,key_resp.keys,key_resp.corr,key_resp.rt,trials.thisRepN,trials.thisTrialN,trials.thisN,trials.thisIndex,trials.ran,ExitKey.keys,ExitKey.rt
space,11.421275,space,11.956845,3,1,5.01933,0,0,0,5,1,Headphone/t3_2.wav,3,,2021-03-20_02h14.20.601,GuessTheSound,2020.2.10,Win32,60,,,,,,,,,,,,,,,,,,,,,,,,,,,,,,,
,,,,1,1,0.455535,0,1,1,0,1,Headphone/t1_1.wav,1,,2021-03-20_02h14.20.601,GuessTheSound,2020.2.10,Win32,60,,,,,,,,,,,,,,,,,,,,,,,,,,,,,,,
,,,,2,1,0.492865,0,2,2,2,1,Headphone/t2_1.wav,2,,2021-03-20_02h14.20.601,GuessTheSound,2020.2.10,Win32,60,,,,,,,,,,,,,,,,,,,,,,,,,,,,,,,
,,,,2,1,0.419755,0,3,3,3,1,Headphone/t2_2.wav,2,,2021-03-20_02h14.20.601,GuessTheSound,2020.2.10,Win32,60,,,,,,,,,,,,,,,,,,,,,,,,,,,,,,,
,,,,3,1,0.310755,0,4,4,4,1,Headphone/t3_1.wav,3,,2021-03-20_02h14.20.601,GuessTheSound,2020.2.10,Win32,60,,,,,,,,,,,,,,,,,,,,,,,,,,,,,,,
,,,,1,1,0.64814,0,5,5,1,1,Headphone/t1_2.wav,1,,2021-03-20_02h14.20.601,GuessTheSound,2020.2.10,Win32,60,,,,,,,,,,,,,,,,,,,,,,,,,,,,,,,
,,,,,,,,,,,,,,,2021-03-20_02h14.20.601,GuessTheSound,2020.2.10,Win32,60,space,18.89924,space,14.64739,space,8.58708,2,1,4.34902,0,0,0,0,1,Practice/Seagull_A.wav,2,3,NEW,Practice,,,,,,,,,,,,
,,,,,,,,,,,,,,,2021-03-20_02h14.20.601,GuessTheSound,2020.2.10,Win32,60,,,,,,,2,1,0.71946,0,1,1,1,1,Practice/Skid_B.wav,2,3,NEW,Practice,,,,,,,,,,,,
,,,,,,,,,,,,,,,2021-03-20_02h14.20.601,GuessTheSound,2020.2.10,Win32,60,,,,,,,1,1,2.37053,0,2,2,2,1,Practice/Seagull_A.wav,1,1,OLD,Practice,,,,,,,,,,,,
,,,,,,,,,,,,,,,2021-03-20_02h14.20.601,GuessTheSound,2020.2.10,Win32,60,,,,,,,2,1,0.88303,0,3,3,3,1,Practice/Gargle_A.wav,2,3,NEW,Practice,,,,,,,,,,,,
,,,,,,,,,,,,,,,2021-03-20_02h14.20.601,GuessTheSound,2020.2.10,Win32,60,,,,,,,2,1,0.600775,0,4,4,4,1,Practice/Gargle_B.wav,2,2,SIMILAR,Practice,,,,,,,,,,,,
,,,,,,,,,,,,,,,2021-03-20_02h14.20.601,GuessTheSound,2020.2.10,Win32,60,,,,,,,,,,,,,,,SoundMST/Elephant_C.wav,2,3,NEW,A,space,8.24605,2,1,2.62826,0,0,0,0,1,,
,,,,,,,,,,,,,,,2021-03-20_02h14.20.601,GuessTheSound,2020.2.10,Win32,60,,,,,,,,,,,,,,,SoundMST/Thunder_A.wav,2,3,NEW,A,,,2,1,0.601705,0,1,1,1,1,,
,,,,,,,,,,,,,,,2021-03-20_02h14.20.601,GuessTheSound,2020.2.10,Win32,60,,,,,,,,,,,,,,,SoundMST/Chime_B.wav,2,3,NEW,A,,,2,1,0.392565,0,2,2,2,1,,
,,,,,,,,,,,,,,,2021-03-20_02h14.20.601,GuessTheSound,2020.2.10,Win32,60,,,,,,,,,,,,,,,SoundMST/Toilet_B.wav,2,3,NEW,A,,,2,1,0.65457,0,3,3,3,1,,
,,,,,,,,,,,,,,,2021-03-20_02h14.20.601,GuessTheSound,2020.2.10,Win32,60,,,,,,,,,,,,,,,SoundMST/Typing.wav,2,3,NEW,A,,,2,1,0.81372,0,4,4,4,1,,
,,,,,,,,,,,,,,,2021-03-20_02h14.20.601,GuessTheSound,2020.2.10,Win32,60,,,,,,,,,,,,,,,SoundMST/Pour_B.wav,2,3,NEW,A,,,2,1,0.41821,0,5,5,5,1,,
,,,,,,,,,,,,,,,2021-03-20_02h14.20.601,GuessTheSound,2020.2.10,Win32,60,,,,,,,,,,,,,,,SoundMST/Sleighbells_B.wav,2,3,NEW,A,,,2,1,0.88765,0,6,6,6,1,,
,,,,,,,,,,,,,,,2021-03-20_02h14.20.601,GuessTheSound,2020.2.10,Win32,60,,,,,,,,,,,,,,,SoundMST/Buzz.wav,2,3,NEW,A,,,2,1,0.54366,0,7,7,7,1,,
,,,,,,,,,,,,,,,2021-03-20_02h14.20.601,GuessTheSound,2020.2.10,Win32,60,,,,,,,,,,,,,,,SoundMST/Baby_F.wav,2,3,NEW,A,,,2,1,0.631345,0,8,8,8,1,,
,,,,,,,,,,,,,,,2021-03-20_02h14.20.601,GuessTheSound,2020.2.10,Win32,60,,,,,,,,,,,,,,,SoundMST/Thunder_A.wav,1,1,OLD,A,,,2,0,0.354375,0,9,9,9,1,,
,,,,,,,,,,,,,,,2021-03-20_02h14.20.601,GuessTheSound,2020.2.10,Win32,60,,,,,,,,,,,,,,,SoundMST/Mosquito_B.wav,2,3,NEW,A,,,2,1,0.62252,0,10,10,10,1,,
,,,,,,,,,,,,,,,2021-03-20_02h14.20.601,GuessTheSound,2020.2.10,Win32,60,,,,,,,,,,,,,,,SoundMST/DialTone.wav,2,3,NEW,A,,,2,1,0.546825,0,11,11,11,1,,
,,,,,,,,,,,,,,,2021-03-20_02h14.20.601,GuessTheSound,2020.2.10,Win32,60,,,,,,,,,,,,,,,SoundMST/Elephant_A.wav,2,2,SIMILAR,A,,,2,1,1.293695,0,12,12,12,1,,
,,,,,,,,,,,,,,,2021-03-20_02h14.20.601,GuessTheSound,2020.2.10,Win32,60,,,,,,,,,,,,,,,SoundMST/Writing_A.wav,2,3,NEW,A,,,2,1,0.56829,0,13,13,13,1,,
,,,,,,,,,,,,,,,2021-03-20_02h14.20.601,GuessTheSound,2020.2.10,Win32,60,,,,,,,,,,,,,,,SoundMST/Faucet_A.wav,2,3,NEW,A,,,2,1,1.210795,0,14,14,14,1,,
,,,,,,,,,,,,,,,2021-03-20_02h14.20.601,GuessTheSound,2020.2.10,Win32,60,,,,,,,,,,,,,,,SoundMST/Typing.wav,1,1,OLD,A,,,1,1,0.661405,0,15,15,15,1,,
,,,,,,,,,,,,,,,2021-03-20_02h14.20.601,GuessTheSound,2020.2.10,Win32,60,,,,,,,,,,,,,,,SoundMST/Sleighbells_B.wav,1,1,OLD,A,,,1,1,0.671305,0,16,16,16,1,,
,,,,,,,,,,,,,,,2021-03-20_02h14.20.601,GuessTheSound,2020.2.10,Win32,60,,,,,,,,,,,,,,,SoundMST/Wind_B.wav,2,3,NEW,A,,,2,1,0.50964,0,17,17,17,1,,
,,,,,,,,,,,,,,,2021-03-20_02h14.20.601,GuessTheSound,2020.2.10,Win32,60,,,,,,,,,,,,,,,SoundMST/Toilet_B.wav,1,1,OLD,A,,,1,1,0.876825,0,18,18,18,1,,
,,,,,,,,,,,,,,,2021-03-20_02h14.20.601,GuessTheSound,2020.2.10,Win32,60,,,,,,,,,,,,,,,SoundMST/Pour_C.wav,2,2,SIMILAR,A,,,2,1,0.87226,0,19,19,19,1,,
,,,,,,,,,,,,,,,2021-03-20_02h14.20.601,GuessTheSound,2020.2.10,Win32,60,,,,,,,,,,,,,,,SoundMST/Chime_A.wav,2,2,SIMILAR,A,,,1,0,0.54209,0,20,20,20,1,,
,,,,,,,,,,,,,,,2021-03-20_02h14.20.601,GuessTheSound,2020.2.10,Win32,60,,,,,,,,,,,,,,,SoundMST/Buzz.wav,1,1,OLD,A,,,1,1,0.623895,0,21,21,21,1,,
,,,,,,,,,,,,,,,2021-03-20_02h14.20.601,GuessTheSound,2020.2.10,Win32,60,,,,,,,,,,,,,,,SoundMST/Writing_C.wav,2,2,SIMILAR,A,,,2,1,0.544515,0,22,22,22,1,,
,,,,,,,,,,,,,,,2021-03-20_02h14.20.601,GuessTheSound,2020.2.10,Win32,60,,,,,,,,,,,,,,,SoundMST/Mosquito_B.wav,1,1,OLD,A,,,2,0,0.817005,0,23,23,23,1,,
,,,,,,,,,,,,,,,2021-03-20_02h14.20.601,GuessTheSound,2020.2.10,Win32,60,,,,,,,,,,,,,,,SoundMST/Cough_D.wav,2,3,NEW,A,,,2,1,0.34122,0,24,24,24,1,,
,,,,,,,,,,,,,,,2021-03-20_02h14.20.601,GuessTheSound,2020.2.10,Win32,60,,,,,,,,,,,,,,,SoundMST/DialTone.wav,1,1,OLD,A,,,2,0,0.3549,0,25,25,25,1,,
,,,,,,,,,,,,,,,2021-03-20_02h14.20.601,GuessTheSound,2020.2.10,Win32,60,,,,,,,,,,,,,,,SoundMST/Puff_A.wav,2,3,NEW,A,,,2,1,0.29127,0,26,26,26,1,,
,,,,,,,,,,,,,,,2021-03-20_02h14.20.601,GuessTheSound,2020.2.10,Win32,60,,,,,,,,,,,,,,,SoundMST/Heartbeat.wav,2,3,NEW,A,,,2,1,0.569885,0,27,27,27,1,,
,,,,,,,,,,,,,,,2021-03-20_02h14.20.601,GuessTheSound,2020.2.10,Win32,60,,,,,,,,,,,,,,,SoundMST/IceDrop.wav,2,3,NEW,A,,,2,1,1.320325,0,28,28,28,1,,
,,,,,,,,,,,,,,,2021-03-20_02h14.20.601,GuessTheSound,2020.2.10,Win32,60,,,,,,,,,,,,,,,SoundMST/Bird_E.wav,2,3,NEW,A,,,2,1,0.42489,0,29,29,29,1,,
,,,,,,,,,,,,,,,2021-03-20_02h14.20.601,GuessTheSound,2020.2.10,Win32,60,,,,,,,,,,,,,,,SoundMST/Baby_E.wav,2,2,SIMILAR,A,,,2,1,3.88884,0,30,30,30,1,,
,,,,,,,,,,,,,,,2021-03-20_02h14.20.601,GuessTheSound,2020.2.10,Win32,60,,,,,,,,,,,,,,,SoundMST/Faucet_C.wav,2,2,SIMILAR,A,,,2,1,0.599405,0,31,31,31,1,,
,,,,,,,,,,,,,,,2021-03-20_02h14.20.601,GuessTheSound,2020.2.10,Win32,60,,,,,,,,,,,,,,,SoundMST/Duck_C.wav,2,3,NEW,A,,,2,1,0.35066,0,32,32,32,1,,
,,,,,,,,,,,,,,,2021-03-20_02h14.20.601,GuessTheSound,2020.2.10,Win32,60,,,,,,,,,,,,,,,SoundMST/Laugh_A.wav,2,3,NEW,A,,,2,1,0.487795,0,33,33,33,1,,
,,,,,,,,,,,,,,,2021-03-20_02h14.20.601,GuessTheSound,2020.2.10,Win32,60,,,,,,,,,,,,,,,SoundMST/Wind_B.wav,1,1,OLD,A,,,2,0,0.89555,0,34,34,34,1,,
,,,,,,,,,,,,,,,2021-03-20_02h14.20.601,GuessTheSound,2020.2.10,Win32,60,,,,,,,,,,,,,,,SoundMST/Chicken_A.wav,2,3,NEW,A,,,2,1,0.29852,0,35,35,35,1,,
,,,,,,,,,,,,,,,2021-03-20_02h14.20.601,GuessTheSound,2020.2.10,Win32,60,,,,,,,,,,,,,,,SoundMST/Guitar_B.wav,2,3,NEW,A,,,2,1,0.68282,0,36,36,36,1,,
,,,,,,,,,,,,,,,2021-03-20_02h14.20.601,GuessTheSound,2020.2.10,Win32,60,,,,,,,,,,,,,,,SoundMST/Cello.wav,2,3,NEW,A,,,2,1,0.61852,0,37,37,37,1,,
,,,,,,,,,,,,,,,2021-03-20_02h14.20.601,GuessTheSound,2020.2.10,Win32,60,,,,,,,,,,,,,,,SoundMST/Heartbeat.wav,1,1,OLD,A,,,1,1,4.82034,0,38,38,38,1,,
,,,,,,,,,,,,,,,2021-03-20_02h14.20.601,GuessTheSound,2020.2.10,Win32,60,,,,,,,,,,,,,,,SoundMST/Airplane_B.wav,2,3,NEW,A,,,2,1,0.321275,0,39,39,39,1,,
,,,,,,,,,,,,,,,2021-03-20_02h14.20.601,GuessTheSound,2020.2.10,Win32,60,,,,,,,,,,,,,,,SoundMST/Cough_F.wav,2,2,SIMILAR,A,,,2,1,1.00257,0,40,40,40,1,,
,,,,,,,,,,,,,,,2021-03-20_02h14.20.601,GuessTheSound,2020.2.10,Win32,60,,,,,,,,,,,,,,,SoundMST/Trumpet_B.wav,2,3,NEW,A,,,2,1,0.69783,0,41,41,41,1,,
,,,,,,,,,,,,,,,2021-03-20_02h14.20.601,GuessTheSound,2020.2.10,Win32,60,,,,,,,,,,,,,,,SoundMST/IceDrop.wav,1,1,OLD,A,,,2,0,0.55797,0,42,42,42,1,,
,,,,,,,,,,,,,,,2021-03-20_02h14.20.601,GuessTheSound,2020.2.10,Win32,60,,,,,,,,,,,,,,,SoundMST/Sneeze_B.wav,2,3,NEW,A,,,2,1,0.48579,0,43,43,43,1,,
,,,,,,,,,,,,,,,2021-03-20_02h14.20.601,GuessTheSound,2020.2.10,Win32,60,,,,,,,,,,,,,,,SoundMST/Puff_A.wav,1,1,OLD,A,,,1,1,0.668225,0,44,44,44,1,,
,,,,,,,,,,,,,,,2021-03-20_02h14.20.601,GuessTheSound,2020.2.10,Win32,60,,,,,,,,,,,,,,,SoundMST/Bird_A.wav,2,2,SIMILAR,A,,,2,1,0.336935,0,45,45,45,1,,
,,,,,,,,,,,,,,,2021-03-20_02h14.20.601,GuessTheSound,2020.2.10,Win32,60,,,,,,,,,,,,,,,SoundMST/Snore_C.wav,2,3,NEW,A,,,2,1,0.483305,0,46,46,46,1,,
,,,,,,,,,,,,,,,2021-03-20_02h14.20.601,GuessTheSound,2020.2.10,Win32,60,,,,,,,,,,,,,,,SoundMST/Guitar_B.wav,1,1,OLD,A,,,1,1,0.34013,0,47,47,47,1,,
,,,,,,,,,,,,,,,2021-03-20_02h14.20.601,GuessTheSound,2020.2.10,Win32,60,,,,,,,,,,,,,,,SoundMST/Cat_A.wav,2,3,NEW,A,,,2,1,0.379515,0,48,48,48,1,,
,,,,,,,,,,,,,,,2021-03-20_02h14.20.601,GuessTheSound,2020.2.10,Win32,60,,,,,,,,,,,,,,,SoundMST/Whistle_B.wav,2,3,NEW,A,,,2,1,0.350785,0,49,49,49,1,,
,,,,,,,,,,,,,,,2021-03-20_02h14.20.601,GuessTheSound,2020.2.10,Win32,60,,,,,,,,,,,,,,,SoundMST/Duck_D.wav,2,2,SIMILAR,A,,,1,0,0.59728,0,50,50,50,1,,
,,,,,,,,,,,,,,,2021-03-20_02h14.20.601,GuessTheSound,2020.2.10,Win32,60,,,,,,,,,,,,,,,SoundMST/Laugh_D.wav,2,2,SIMILAR,A,,,1,0,1.23321,0,51,51,51,1,,
,,,,,,,,,,,,,,,2021-03-20_02h14.20.601,GuessTheSound,2020.2.10,Win32,60,,,,,,,,,,,,,,,SoundMST/Chicken_A.wav,1,1,OLD,A,,,1,1,0.685845,0,52,52,52,1,,
,,,,,,,,,,,,,,,2021-03-20_02h14.20.601,GuessTheSound,2020.2.10,Win32,60,,,,,,,,,,,,,,,SoundMST/Cello.wav,1,1,OLD,A,,,1,1,0.6404,0,53,53,53,1,,
,,,,,,,,,,,,,,,2021-03-20_02h14.20.601,GuessTheSound,2020.2.10,Win32,60,,,,,,,,,,,,,,,SoundMST/Slurp.wav,2,3,NEW,A,,,2,1,1.76694,0,54,54,54,1,,
,,,,,,,,,,,,,,,2021-03-20_02h14.20.601,GuessTheSound,2020.2.10,Win32,60,,,,,,,,,,,,,,,SoundMST/Chomp_A.wav,2,3,NEW,A,,,2,1,2.00065,0,55,55,55,1,,
,,,,,,,,,,,,,,,2021-03-20_02h14.20.601,GuessTheSound,2020.2.10,Win32,60,,,,,,,,,,,,,,,SoundMST/Airplane_B.wav,1,1,OLD,A,,,1,1,0.81131,0,56,56,56,1,,
,,,,,,,,,,,,,,,2021-03-20_02h14.20.601,GuessTheSound,2020.2.10,Win32,60,,,,,,,,,,,,,,,SoundMST/ManWhistle.wav,2,3,NEW,A,,,2,1,1.779425,0,57,57,57,1,,
,,,,,,,,,,,,,,,2021-03-20_02h14.20.601,GuessTheSound,2020.2.10,Win32,60,,,,,,,,,,,,,,,SoundMST/Trumpet_B.wav,1,1,OLD,A,,,1,1,0.56291,0,58,58,58,1,,
,,,,,,,,,,,,,,,2021-03-20_02h14.20.601,GuessTheSound,2020.2.10,Win32,60,,,,,,,,,,,,,,,SoundMST/Cup.wav,2,3,NEW,A,,,1,0,4.019865,0,59,59,59,1,,
,,,,,,,,,,,,,,,2021-03-20_02h14.20.601,GuessTheSound,2020.2.10,Win32,60,,,,,,,,,,,,,,,SoundMST/Snore_E.wav,2,2,SIMILAR,A,,,1,0,28.81191,0,60,60,60,1,,
,,,,,,,,,,,,,,,2021-03-20_02h14.20.601,GuessTheSound,2020.2.10,Win32,60,,,,,,,,,,,,,,,SoundMST/Airhorn.wav,2,3,NEW,A,,,2,1,1.3606,0,61,61,61,1,,
,,,,,,,,,,,,,,,2021-03-20_02h14.20.601,GuessTheSound,2020.2.10,Win32,60,,,,,,,,,,,,,,,SoundMST/Whistle_C.wav,2,2,SIMILAR,A,,,1,0,8.405865,0,62,62,62,1,,
,,,,,,,,,,,,,,,2021-03-20_02h14.20.601,GuessTheSound,2020.2.10,Win32,60,,,,,,,,,,,,,,,SoundMST/Phone_D.wav,2,3,NEW,A,,,2,1,0.742025,0,63,63,63,1,,
,,,,,,,,,,,,,,,2021-03-20_02h14.20.601,GuessTheSound,2020.2.10,Win32,60,,,,,,,,,,,,,,,SoundMST/Sneeze_B.wav,1,1,OLD,A,,,1,1,0.339265,0,64,64,64,1,,
,,,,,,,,,,,,,,,2021-03-20_02h14.20.601,GuessTheSound,2020.2.10,Win32,60,,,,,,,,,,,,,,,SoundMST/Cat_A.wav,1,1,OLD,A,,,1,1,2.403815,0,65,65,65,1,,
,,,,,,,,,,,,,,,2021-03-20_02h14.20.601,GuessTheSound,2020.2.10,Win32,60,,,,,,,,,,,,,,,SoundMST/Bagpipe.wav,2,3,NEW,A,,,1,0,1.887745,0,66,66,66,1,,
,,,,,,,,,,,,,,,2021-03-20_02h14.20.601,GuessTheSound,2020.2.10,Win32,60,,,,,,,,,,,,,,,SoundMST/Slurp.wav,1,1,OLD,A,,,1,1,0.45221,0,67,67,67,1,,
,,,,,,,,,,,,,,,2021-03-20_02h14.20.601,GuessTheSound,2020.2.10,Win32,60,,,,,,,,,,,,,,,SoundMST/Bowlingpins.wav,2,3,NEW,A,,,2,1,0.39521,0,68,68,68,1,,
,,,,,,,,,,,,,,,2021-03-20_02h14.20.601,GuessTheSound,2020.2.10,Win32,60,,,,,,,,,,,,,,,SoundMST/Cow.wav,2,3,NEW,A,,,1,0,1.09127,0,69,69,69,1,,
,,,,,,,,,,,,,,,2021-03-20_02h14.20.601,GuessTheSound,2020.2.10,Win32,60,,,,,,,,,,,,,,,SoundMST/Siren_E.wav,2,3,NEW,A,,,2,1,0.516505,0,70,70,70,1,,
,,,,,,,,,,,,,,,2021-03-20_02h14.20.601,GuessTheSound,2020.2.10,Win32,60,,,,,,,,,,,,,,,SoundMST/ManWhistle.wav,1,1,OLD,A,,,2,0,0.755995,0,71,71,71,1,,
,,,,,,,,,,,,,,,2021-03-20_02h14.20.601,GuessTheSound,2020.2.10,Win32,60,,,,,,,,,,,,,,,SoundMST/Crow_B.wav,2,3,NEW,A,,,2,1,0.721295,0,72,72,72,1,,
,,,,,,,,,,,,,,,2021-03-20_02h14.20.601,GuessTheSound,2020.2.10,Win32,60,,,,,,,,,,,,,,,SoundMST/Chomp_C.wav,2,2,SIMILAR,A,,,2,1,0.51353,0,73,73,73,1,,
,,,,,,,,,,,,,,,2021-03-20_02h14.20.601,GuessTheSound,2020.2.10,Win32,60,,,,,,,,,,,,,,,SoundMST/Cup.wav,1,1,OLD,A,,,1,1,0.425775,0,74,74,74,1,,
,,,,,,,,,,,,,,,2021-03-20_02h14.20.601,GuessTheSound,2020.2.10,Win32,60,,,,,,,,,,,,,,,SoundMST/Bullfrog.wav,2,3,NEW,A,,,1,0,0.769905,0,75,75,75,1,,
,,,,,,,,,,,,,,,2021-03-20_02h14.20.601,GuessTheSound,2020.2.10,Win32,60,,,,,,,,,,,,,,,SoundMST/Phone_E.wav,2,2,SIMILAR,A,,,1,0,2.020405,0,76,76,76,1,,
,,,,,,,,,,,,,,,2021-03-20_02h14.20.601,GuessTheSound,2020.2.10,Win32,60,,,,,,,,,,,,,,,SoundMST/Bagpipe.wav,1,1,OLD,A,,,1,1,0.401905,0,77,77,77,1,,
,,,,,,,,,,,,,,,2021-03-20_02h14.20.601,GuessTheSound,2020.2.10,Win32,60,,,,,,,,,,,,,,,SoundMST/HairDryer_A.wav,2,3,NEW,A,,,2,1,1.27776,0,78,78,78,1,,
,,,,,,,,,,,,,,,2021-03-20_02h14.20.601,GuessTheSound,2020.2.10,Win32,60,,,,,,,,,,,,,,,SoundMST/Airhorn.wav,1,1,OLD,A,,,1,1,0.36101,0,79,79,79,1,,
,,,,,,,,,,,,,,,2021-03-20_02h14.20.601,GuessTheSound,2020.2.10,Win32,60,,,,,,,,,,,,,,,SoundMST/Hammer_A.wav,2,3,NEW,A,,,2,1,1.01559,0,80,80,80,1,,
,,,,,,,,,,,,,,,2021-03-20_02h14.20.601,GuessTheSound,2020.2.10,Win32,60,,,,,,,,,,,,,,,SoundMST/Cuckoo_A.wav,2,3,NEW,A,,,2,1,0.94777,0,81,81,81,1,,
,,,,,,,,,,,,,,,2021-03-20_02h14.20.601,GuessTheSound,2020.2.10,Win32,60,,,,,,,,,,,,,,,SoundMST/Cow.wav,1,1,OLD,A,,,1,1,1.293455,0,82,82,82,1,,
,,,,,,,,,,,,,,,2021-03-20_02h14.20.601,GuessTheSound,2020.2.10,Win32,60,,,,,,,,,,,,,,,SoundMST/Footsteps_C.wav,2,3,NEW,A,,,2,1,0.374825,0,83,83,83,1,,
,,,,,,,,,,,,,,,2021-03-20_02h14.20.601,GuessTheSound,2020.2.10,Win32,60,,,,,,,,,,,,,,,SoundMST/Dog_H.wav,2,3,NEW,A,,,2,1,0.949255,0,84,84,84,1,,
,,,,,,,,,,,,,,,2021-03-20_02h14.20.601,GuessTheSound,2020.2.10,Win32,60,,,,,,,,,,,,,,,SoundMST/Bowlingpins.wav,1,1,OLD,A,,,1,1,1.012125,0,85,85,85,1,,
,,,,,,,,,,,,,,,2021-03-20_02h14.20.601,GuessTheSound,2020.2.10,Win32,60,,,,,,,,,,,,,,,SoundMST/Piano_D.wav,2,3,NEW,A,,,2,1,0.461605,0,86,86,86,1,,
,,,,,,,,,,,,,,,2021-03-20_02h14.20.601,GuessTheSound,2020.2.10,Win32,60,,,,,,,,,,,,,,,SoundMST/Fireworks.wav,2,3,NEW,A,,,2,1,0.742355,0,87,87,87,1,,
,,,,,,,,,,,,,,,2021-03-20_02h14.20.601,GuessTheSound,2020.2.10,Win32,60,,,,,,,,,,,,,,,SoundMST/Bullfrog.wav,1,1,OLD,A,,,1,1,0.350855,0,88,88,88,1,,
,,,,,,,,,,,,,,,2021-03-20_02h14.20.601,GuessTheSound,2020.2.10,Win32,60,,,,,,,,,,,,,,,SoundMST/Siren_A.wav,2,2,SIMILAR,A,,,2,1,1.590865,0,89,89,89,1,,
,,,,,,,,,,,,,,,2021-03-20_02h14.20.601,GuessTheSound,2020.2.10,Win32,60,,,,,,,,,,,,,,,SoundMST/Crow_A.wav,2,2,SIMILAR,A,,,1,0,1.45434,0,90,90,90,1,,
,,,,,,,,,,,,,,,2021-03-20_02h14.20.601,GuessTheSound,2020.2.10,Win32,60,,,,,,,,,,,,,,,SoundMST/Goat_B.wav,2,3,NEW,A,,,2,1,1.978975,0,91,91,91,1,,
,,,,,,,,,,,,,,,2021-03-20_02h14.20.601,GuessTheSound,2020.2.10,Win32,60,,,,,,,,,,,,,,,SoundMST/HairDryer_A.wav,1,1,OLD,A,,,2,0,1.69331,0,92,92,92,1,,
,,,,,,,,,,,,,,,2021-03-20_02h14.20.601,GuessTheSound,2020.2.10,Win32,60,,,,,,,,,,,,,,,SoundMST/Cuckoo_A.wav,1,1,OLD,A,,,1,1,0.631255,0,93,93,93,1,,
,,,,,,,,,,,,,,,2021-03-20_02h14.20.601,GuessTheSound,2020.2.10,Win32,60,,,,,,,,,,,,,,,SoundMST/Coin_D.wav,2,3,NEW,A,,,2,1,0.44552,0,94,94,94,1,,
,,,,,,,,,,,,,,,2021-03-20_02h14.20.601,GuessTheSound,2020.2.10,Win32,60,,,,,,,,,,,,,,,SoundMST/Howl.wav,2,3,NEW,A,,,2,1,1.06944,0,95,95,95,1,,
,,,,,,,,,,,,,,,2021-03-20_02h14.20.601,GuessTheSound,2020.2.10,Win32,60,,,,,,,,,,,,,,,SoundMST/Hammer_A.wav,1,1,OLD,A,,,2,0,1.9215,0,96,96,96,1,,
,,,,,,,,,,,,,,,2021-03-20_02h14.20.601,GuessTheSound,2020.2.10,Win32,60,,,,,,,,,,,,,,,SoundMST/Helicopter_A.wav,2,3,NEW,A,,,2,1,0.87924,0,97,97,97,1,,
,,,,,,,,,,,,,,,2021-03-20_02h14.20.601,GuessTheSound,2020.2.10,Win32,60,,,,,,,,,,,,,,,SoundMST/Bubbles_A.wav,2,3,NEW,A,,,2,1,0.40963,0,98,98,98,1,,
,,,,,,,,,,,,,,,2021-03-20_02h14.20.601,GuessTheSound,2020.2.10,Win32,60,,,,,,,,,,,,,,,SoundMST/Footsteps_F.wav,2,2,SIMILAR,A,,,2,1,1.32587,0,99,99,99,1,,
,,,,,,,,,,,,,,,2021-03-20_02h14.20.601,GuessTheSound,2020.2.10,Win32,60,,,,,,,,,,,,,,,SoundMST/Growl_G.wav,2,3,NEW,A,,,2,1,0.6368,0,100,100,100,1,,
,,,,,,,,,,,,,,,2021-03-20_02h14.20.601,GuessTheSound,2020.2.10,Win32,60,,,,,,,,,,,,,,,SoundMST/Horse.wav,2,3,NEW,A,,,2,1,2.81107,0,101,101,101,1,,
,,,,,,,,,,,,,,,2021-03-20_02h14.20.601,GuessTheSound,2020.2.10,Win32,60,,,,,,,,,,,,,,,SoundMST/Piano_D.wav,1,1,OLD,A,,,1,1,0.70227,0,102,102,102,1,,
,,,,,,,,,,,,,,,2021-03-20_02h14.20.601,GuessTheSound,2020.2.10,Win32,60,,,,,,,,,,,,,,,SoundMST/Dog_F.wav,2,2,SIMILAR,A,,,2,1,1.32673,0,103,103,103,1,,
,,,,,,,,,,,,,,,2021-03-20_02h14.20.601,GuessTheSound,2020.2.10,Win32,60,,,,,,,,,,,,,,,SoundMST/Fireworks.wav,1,1,OLD,A,,,1,1,0.73025,0,104,104,104,1,,
,,,,,,,,,,,,,,,2021-03-20_02h14.20.601,GuessTheSound,2020.2.10,Win32,60,,,,,,,,,,,,,,,SoundMST/Printer.wav,2,3,NEW,A,,,2,1,0.766245,0,105,105,105,1,,
,,,,,,,,,,,,,,,2021-03-20_02h14.20.601,GuessTheSound,2020.2.10,Win32,60,,,,,,,,,,,,,,,SoundMST/Camera.wav,2,3,NEW,A,,,2,1,0.38402,0,106,106,106,1,,
,,,,,,,,,,,,,,,2021-03-20_02h14.20.601,GuessTheSound,2020.2.10,Win32,60,,,,,,,,,,,,,,,SoundMST/Clap_B.wav,2,3,NEW,A,,,2,1,0.37951,0,107,107,107,1,,
,,,,,,,,,,,,,,,2021-03-20_02h14.20.601,GuessTheSound,2020.2.10,Win32,60,,,,,,,,,,,,,,,SoundMST/PaperRip.wav,2,3,NEW,A,,,2,1,0.389125,0,108,108,108,1,,
,,,,,,,,,,,,,,,2021-03-20_02h14.20.601,GuessTheSound,2020.2.10,Win32,60,,,,,,,,,,,,,,,SoundMST/Coin_E.wav,2,2,SIMILAR,A,,,1,0,2.12034,0,109,109,109,1,,
,,,,,,,,,,,,,,,2021-03-20_02h14.20.601,GuessTheSound,2020.2.10,Win32,60,,,,,,,,,,,,,,,SoundMST/Droplet_B.wav,2,3,NEW,A,,,2,1,0.368125,0,110,110,110,1,,
,,,,,,,,,,,,,,,2021-03-20_02h14.20.601,GuessTheSound,2020.2.10,Win32,60,,,,,,,,,,,,,,,SoundMST/Steam.wav,2,3,NEW,A,,,2,1,1.24302,0,111,111,111,1,,
,,,,,,,,,,,,,,,2021-03-20_02h14.20.601,GuessTheSound,2020.2.10,Win32,60,,,,,,,,,,,,,,,SoundMST/Helicopter_A.wav,1,1,OLD,A,,,1,1,1.287185,0,112,112,112,1,,
,,,,,,,,,,,,,,,2021-03-20_02h14.20.601,GuessTheSound,2020.2.10,Win32,60,,,,,,,,,,,,,,,SoundMST/CarStart_E.wav,2,3,NEW,A,,,2,1,0.71564,0,113,113,113,1,,
,,,,,,,,,,,,,,,2021-03-20_02h14.20.601,GuessTheSound,2020.2.10,Win32,60,,,,,,,,,,,,,,,SoundMST/Howl.wav,1,1,OLD,A,,,1,1,0.360875,0,114,114,114,1,,
,,,,,,,,,,,,,,,2021-03-20_02h14.20.601,GuessTheSound,2020.2.10,Win32,60,,,,,,,,,,,,,,,SoundMST/Growl_H.wav,2,2,SIMILAR,A,,,1,0,0.44351,0,115,115,115,1,,
,,,,,,,,,,,,,,,2021-03-20_02h14.20.601,GuessTheSound,2020.2.10,Win32,60,,,,,,,,,,,,,,,SoundMST/Goat_C.wav,2,2,SIMILAR,A,,,1,0,2.340295,0,116,116,116,1,,
,,,,,,,,,,,,,,,2021-03-20_02h14.20.601,GuessTheSound,2020.2.10,Win32,60,,,,,,,,,,,,,,,SoundMST/Donkey.wav,2,3,NEW,A,,,1,0,1.526565,0,117,117,117,1,,
,,,,,,,,,,,,,,,2021-03-20_02h14.20.601,GuessTheSound,2020.2.10,Win32,60,,,,,,,,,,,,,,,SoundMST/PaperRip.wav,1,1,OLD,A,,,1,1,0.944495,0,118,118,118,1,,
,,,,,,,,,,,,,,,2021-03-20_02h14.20.601,GuessTheSound,2020.2.10,Win32,60,,,,,,,,,,,,,,,SoundMST/Bubbles_B.wav,2,2,SIMILAR,A,,,1,0,0.42813,0,119,119,119,1,,
,,,,,,,,,,,,,,,2021-03-20_02h14.20.601,GuessTheSound,2020.2.10,Win32,60,,,,,,,,,,,,,,,SoundMST/Horse.wav,1,1,OLD,A,,,1,1,0.3936,0,120,120,120,1,,
,,,,,,,,,,,,,,,2021-03-20_02h14.20.601,GuessTheSound,2020.2.10,Win32,60,,,,,,,,,,,,,,,SoundMST/Printer.wav,1,1,OLD,A,,,1,1,0.37958,0,121,121,121,1,,
,,,,,,,,,,,,,,,2021-03-20_02h14.20.601,GuessTheSound,2020.2.10,Win32,60,,,,,,,,,,,,,,,SoundMST/Camera.wav,1,1,OLD,A,,,1,1,0.30498,0,122,122,122,1,,
,,,,,,,,,,,,,,,2021-03-20_02h14.20.601,GuessTheSound,2020.2.10,Win32,60,,,,,,,,,,,,,,,SoundMST/Droplet_B.wav,1,1,OLD,A,,,1,1,0.378195,0,123,123,123,1,,
,,,,,,,,,,,,,,,2021-03-20_02h14.20.601,GuessTheSound,2020.2.10,Win32,60,,,,,,,,,,,,,,,SoundMST/Steam.wav,1,1,OLD,A,,,1,1,0.48656,0,124,124,124,1,,
,,,,,,,,,,,,,,,2021-03-20_02h14.20.601,GuessTheSound,2020.2.10,Win32,60,,,,,,,,,,,,,,,SoundMST/CarStart_A.wav,2,2,SIMILAR,A,,,2,1,0.35723,0,125,125,125,1,,
,,,,,,,,,,,,,,,2021-03-20_02h14.20.601,GuessTheSound,2020.2.10,Win32,60,,,,,,,,,,,,,,,SoundMST/Donkey.wav,1,1,OLD,A,,,1,1,0.329205,0,126,126,126,1,,
,,,,,,,,,,,,,,,2021-03-20_02h14.20.601,GuessTheSound,2020.2.10,Win32,60,,,,,,,,,,,,,,,SoundMST/Clap_C.wav,2,2,SIMILAR,A,,,2,1,0.536385,0,127,127,127,1,,
,,,,,,,,,,,,,,,2021-03-20_02h14.20.601,GuessTheSound,2020.2.10,Win32,60,,,,,,,,,,,,,,,,,,,,,,,,,,,,,,space,21.81337
