VolumeContinueKey.keys,VolumeContinueKey.rt,HeadphoneContinueKey.keys,HeadphoneContinueKey.rt,CheckResp.keys,CheckResp.corr,CheckResp.rt,trials_2.thisRepN,trials_2.thisTrialN,trials_2.thisN,trials_2.thisIndex,trials_2.ran,File,Correct,participant,session,date,expName,psychopyVersion,OS,frameRate,ContinueResp.keys,ContinueResp.rt,Wel2ContinueKey.keys,Wel2ContinueKey.rt,WelcomeContinueKey2.keys,WelcomeContinueKey2.rt,Practice_resp.keys,Practice_resp.corr,Practice_resp.rt,PracticeTrials.thisRepN,PracticeTrials.thisTrialN,PracticeTrials.thisN,PracticeTrials.thisIndex,PracticeTrials.ran,SoundFile,Correct2,Type,Trial,StartTast.keys,StartTast.rt,MSTResp.keys,MSTResp.corr,MSTResp.rt,trials.thisRepN,trials.thisTrialN,trials.thisN,trials.thisIndex,trials.ran,ExitKey.keys,ExitKey.rt
space,4.83969,space,7.504515,3,1,5.121415,0,0,0,4,1,Headphone/t3_1.wav,3,5f58e2ebb27d050941be1694,001,2021-03-01_23h42.37.865,GuessTheSound,2020.2.10,Win32,60,,,,,,,,,,,,,,,,,,,,,,,,,,,,,,
,,,,1,1,0.858345,0,1,1,1,1,Headphone/t1_2.wav,1,5f58e2ebb27d050941be1694,001,2021-03-01_23h42.37.865,GuessTheSound,2020.2.10,Win32,60,,,,,,,,,,,,,,,,,,,,,,,,,,,,,,
,,,,2,1,0.487645,0,2,2,2,1,Headphone/t2_1.wav,2,5f58e2ebb27d050941be1694,001,2021-03-01_23h42.37.865,GuessTheSound,2020.2.10,Win32,60,,,,,,,,,,,,,,,,,,,,,,,,,,,,,,
,,,,1,1,0.6,0,3,3,0,1,Headphone/t1_1.wav,1,5f58e2ebb27d050941be1694,001,2021-03-01_23h42.37.865,GuessTheSound,2020.2.10,Win32,60,,,,,,,,,,,,,,,,,,,,,,,,,,,,,,
,,,,3,1,0.945735,0,4,4,5,1,Headphone/t3_2.wav,3,5f58e2ebb27d050941be1694,001,2021-03-01_23h42.37.865,GuessTheSound,2020.2.10,Win32,60,,,,,,,,,,,,,,,,,,,,,,,,,,,,,,
,,,,2,1,1.381675,0,5,5,3,1,Headphone/t2_2.wav,2,5f58e2ebb27d050941be1694,001,2021-03-01_23h42.37.865,GuessTheSound,2020.2.10,Win32,60,,,,,,,,,,,,,,,,,,,,,,,,,,,,,,
,,,,,,,,,,,,,2,5f58e2ebb27d050941be1694,001,2021-03-01_23h42.37.865,GuessTheSound,2020.2.10,Win32,60,space,13.29708,space,24.89955,space,3.330815,3,1,5.9349,0,0,0,0,1,Practice/Seagull_A.wav,3,NEW,Practice,,,,,,,,,,,,
,,,,,,,,,,,,,2,5f58e2ebb27d050941be1694,001,2021-03-01_23h42.37.865,GuessTheSound,2020.2.10,Win32,60,,,,,,,3,1,1.800885,0,1,1,1,1,Practice/Skid_B.wav,3,NEW,Practice,,,,,,,,,,,,
,,,,,,,,,,,,,1,5f58e2ebb27d050941be1694,001,2021-03-01_23h42.37.865,GuessTheSound,2020.2.10,Win32,60,,,,,,,1,1,1.92864,0,2,2,2,1,Practice/Seagull_A.wav,1,OLD,Practice,,,,,,,,,,,,
,,,,,,,,,,,,,2,5f58e2ebb27d050941be1694,001,2021-03-01_23h42.37.865,GuessTheSound,2020.2.10,Win32,60,,,,,,,3,1,1.51786,0,3,3,3,1,Practice/Gargle_A.wav,3,NEW,Practice,,,,,,,,,,,,
,,,,,,,,,,,,,2,5f58e2ebb27d050941be1694,001,2021-03-01_23h42.37.865,GuessTheSound,2020.2.10,Win32,60,,,,,,,2,1,2.86541,0,4,4,4,1,Practice/Gargle_B.wav,2,SIMILAR,Practice,,,,,,,,,,,,
,,,,,,,,,,,,,2,5f58e2ebb27d050941be1694,001,2021-03-01_23h42.37.865,GuessTheSound,2020.2.10,Win32,60,,,,,,,,,,,,,,,Initial/Repeat/ManWhistle.wav,3,NEW,B,space,8.06656,3,1,2.53965,0,0,0,0,1,,
,,,,,,,,,,,,,2,5f58e2ebb27d050941be1694,001,2021-03-01_23h42.37.865,GuessTheSound,2020.2.10,Win32,60,,,,,,,,,,,,,,,Siren_E.wav,3,NEW,B,,,3,1,0.6836,0,1,1,1,1,,
,,,,,,,,,,,,,2,5f58e2ebb27d050941be1694,001,2021-03-01_23h42.37.865,GuessTheSound,2020.2.10,Win32,60,,,,,,,,,,,,,,,Footsteps_G.wav,3,NEW,B,,,3,1,0.577305,0,2,2,2,1,,
,,,,,,,,,,,,,2,5f58e2ebb27d050941be1694,001,2021-03-01_23h42.37.865,GuessTheSound,2020.2.10,Win32,60,,,,,,,,,,,,,,,Initial/Doubled/Chicken_A.wav,3,NEW,B,,,3,1,0.602035,0,3,3,3,1,,
,,,,,,,,,,,,,2,5f58e2ebb27d050941be1694,001,2021-03-01_23h42.37.865,GuessTheSound,2020.2.10,Win32,60,,,,,,,,,,,,,,,Phone_D.wav,3,NEW,B,,,3,1,0.520445,0,4,4,4,1,,
,,,,,,,,,,,,,2,5f58e2ebb27d050941be1694,001,2021-03-01_23h42.37.865,GuessTheSound,2020.2.10,Win32,60,,,,,,,,,,,,,,,Initial/Repeat/Cup.wav,3,NEW,B,,,3,1,0.831775,0,5,5,5,1,,
,,,,,,,,,,,,,2,5f58e2ebb27d050941be1694,001,2021-03-01_23h42.37.865,GuessTheSound,2020.2.10,Win32,60,,,,,,,,,,,,,,,Test/Foils/Bowlingpins.wav,3,NEW,B,,,3,1,0.266975,0,6,6,6,1,,
,,,,,,,,,,,,,2,5f58e2ebb27d050941be1694,001,2021-03-01_23h42.37.865,GuessTheSound,2020.2.10,Win32,60,,,,,,,,,,,,,,,Bird_D.wav,3,NEW,B,,,3,1,0.43327,0,7,7,7,1,,
,,,,,,,,,,,,,2,5f58e2ebb27d050941be1694,001,2021-03-01_23h42.37.865,GuessTheSound,2020.2.10,Win32,60,,,,,,,,,,,,,,,Initial/Doubled/HairDryer_A.wav,3,NEW,B,,,3,1,0.28103,0,8,8,8,1,,
,,,,,,,,,,,,,2,5f58e2ebb27d050941be1694,001,2021-03-01_23h42.37.865,GuessTheSound,2020.2.10,Win32,60,,,,,,,,,,,,,,,Faucet_D.wav,3,NEW,B,,,3,1,0.41743,0,9,9,9,1,,
,,,,,,,,,,,,,2,5f58e2ebb27d050941be1694,001,2021-03-01_23h42.37.865,GuessTheSound,2020.2.10,Win32,60,,,,,,,,,,,,,,,Siren_B.wav,2,SIMILAR,B,,,1,0,1.13263,0,10,10,10,1,,
,,,,,,,,,,,,,2,5f58e2ebb27d050941be1694,001,2021-03-01_23h42.37.865,GuessTheSound,2020.2.10,Win32,60,,,,,,,,,,,,,,,Laugh_C.wav,3,NEW,B,,,3,1,0.86758,0,11,11,11,1,,
,,,,,,,,,,,,,1,5f58e2ebb27d050941be1694,001,2021-03-01_23h42.37.865,GuessTheSound,2020.2.10,Win32,60,,,,,,,,,,,,,,,Initial/Repeat/ManWhistle.wav,1,OLD,B,,,1,1,1.675205,0,12,12,12,1,,
,,,,,,,,,,,,,2,5f58e2ebb27d050941be1694,001,2021-03-01_23h42.37.865,GuessTheSound,2020.2.10,Win32,60,,,,,,,,,,,,,,,Initial/NoRepeat/Cow.wav,3,NEW,B,,,3,1,0.285415,0,13,13,13,1,,
,,,,,,,,,,,,,2,5f58e2ebb27d050941be1694,001,2021-03-01_23h42.37.865,GuessTheSound,2020.2.10,Win32,60,,,,,,,,,,,,,,,Cough_A.wav,3,NEW,B,,,3,1,0.14982,0,14,14,14,1,,
,,,,,,,,,,,,,2,5f58e2ebb27d050941be1694,001,2021-03-01_23h42.37.865,GuessTheSound,2020.2.10,Win32,60,,,,,,,,,,,,,,,Phone_E.wav,2,SIMILAR,B,,,2,1,1.45075,0,15,15,15,1,,
,,,,,,,,,,,,,2,5f58e2ebb27d050941be1694,001,2021-03-01_23h42.37.865,GuessTheSound,2020.2.10,Win32,60,,,,,,,,,,,,,,,Chime_B.wav,3,NEW,B,,,3,1,0.250865,0,16,16,16,1,,
,,,,,,,,,,,,,2,5f58e2ebb27d050941be1694,001,2021-03-01_23h42.37.865,GuessTheSound,2020.2.10,Win32,60,,,,,,,,,,,,,,,Footsteps_F.wav,2,SIMILAR,B,,,1,0,0.332585,0,17,17,17,1,,
,,,,,,,,,,,,,2,5f58e2ebb27d050941be1694,001,2021-03-01_23h42.37.865,GuessTheSound,2020.2.10,Win32,60,,,,,,,,,,,,,,,Initial/NoRepeat/Toilet_B.wav,3,NEW,B,,,3,1,0.05877,0,18,18,18,1,,
,,,,,,,,,,,,,2,5f58e2ebb27d050941be1694,001,2021-03-01_23h42.37.865,GuessTheSound,2020.2.10,Win32,60,,,,,,,,,,,,,,,Piano_D.wav,3,NEW,B,,,3,1,0.235455,0,19,19,19,1,,
,,,,,,,,,,,,,1,5f58e2ebb27d050941be1694,001,2021-03-01_23h42.37.865,GuessTheSound,2020.2.10,Win32,60,,,,,,,,,,,,,,,Initial/Repeat/Cup.wav,1,OLD,B,,,3,0,0.80135,0,20,20,20,1,,
,,,,,,,,,,,,,1,5f58e2ebb27d050941be1694,001,2021-03-01_23h42.37.865,GuessTheSound,2020.2.10,Win32,60,,,,,,,,,,,,,,,Initial/Doubled/HairDryer_A.wav,1,OLD,B,,,1,1,2.28442,0,21,21,21,1,,
,,,,,,,,,,,,,2,5f58e2ebb27d050941be1694,001,2021-03-01_23h42.37.865,GuessTheSound,2020.2.10,Win32,60,,,,,,,,,,,,,,,Initial/NoRepeat/Thunder_A.wav,3,NEW,B,,,3,1,0.287335,0,22,22,22,1,,
,,,,,,,,,,,,,1,5f58e2ebb27d050941be1694,001,2021-03-01_23h42.37.865,GuessTheSound,2020.2.10,Win32,60,,,,,,,,,,,,,,,Initial/Doubled/Chicken_A.wav,1,OLD,B,,,1,1,0.56366,0,23,23,23,1,,
,,,,,,,,,,,,,2,5f58e2ebb27d050941be1694,001,2021-03-01_23h42.37.865,GuessTheSound,2020.2.10,Win32,60,,,,,,,,,,,,,,,Whistle_A.wav,3,NEW,B,,,3,1,0.349945,0,24,24,24,1,,
,,,,,,,,,,,,,2,5f58e2ebb27d050941be1694,001,2021-03-01_23h42.37.865,GuessTheSound,2020.2.10,Win32,60,,,,,,,,,,,,,,,Chick_A.wav,2,SIMILAR,B,,,1,0,0.866885,0,25,25,25,1,,
,,,,,,,,,,,,,2,5f58e2ebb27d050941be1694,001,2021-03-01_23h42.37.865,GuessTheSound,2020.2.10,Win32,60,,,,,,,,,,,,,,,Dog_E.wav,3,NEW,B,,,3,1,0.26663,0,26,26,26,1,,
,,,,,,,,,,,,,1,5f58e2ebb27d050941be1694,001,2021-03-01_23h42.37.865,GuessTheSound,2020.2.10,Win32,60,,,,,,,,,,,,,,,Test/Foils/Bowlingpins.wav,1,OLD,B,,,1,1,0.217515,0,27,27,27,1,,
,,,,,,,,,,,,,2,5f58e2ebb27d050941be1694,001,2021-03-01_23h42.37.865,GuessTheSound,2020.2.10,Win32,60,,,,,,,,,,,,,,,Initial/NoRepeat/Fireworks.wav,3,NEW,B,,,3,1,0.217175,0,28,28,28,1,,
,,,,,,,,,,,,,1,5f58e2ebb27d050941be1694,001,2021-03-01_23h42.37.865,GuessTheSound,2020.2.10,Win32,60,,,,,,,,,,,,,,,Initial/NoRepeat/Cow.wav,1,OLD,B,,,1,1,0.447665,0,29,29,29,1,,
,,,,,,,,,,,,,2,5f58e2ebb27d050941be1694,001,2021-03-01_23h42.37.865,GuessTheSound,2020.2.10,Win32,60,,,,,,,,,,,,,,,Snore_D.wav,3,NEW,B,,,3,1,0.282915,0,30,30,30,1,,
,,,,,,,,,,,,,2,5f58e2ebb27d050941be1694,001,2021-03-01_23h42.37.865,GuessTheSound,2020.2.10,Win32,60,,,,,,,,,,,,,,,Faucet_C.wav,2,SIMILAR,B,,,1,0,0.257395,0,31,31,31,1,,
,,,,,,,,,,,,,2,5f58e2ebb27d050941be1694,001,2021-03-01_23h42.37.865,GuessTheSound,2020.2.10,Win32,60,,,,,,,,,,,,,,,Chime_A.wav,2,SIMILAR,B,,,1,0,0.23413,0,32,32,32,1,,
,,,,,,,,,,,,,2,5f58e2ebb27d050941be1694,001,2021-03-01_23h42.37.865,GuessTheSound,2020.2.10,Win32,60,,,,,,,,,,,,,,,Cough_E.wav,2,SIMILAR,B,,,2,1,0.50361,0,33,33,33,1,,
,,,,,,,,,,,,,2,5f58e2ebb27d050941be1694,001,2021-03-01_23h42.37.865,GuessTheSound,2020.2.10,Win32,60,,,,,,,,,,,,,,,Test/Foils/Heartbeat.wav,3,NEW,B,,,3,1,0.03848,0,34,34,34,1,,
,,,,,,,,,,,,,2,5f58e2ebb27d050941be1694,001,2021-03-01_23h42.37.865,GuessTheSound,2020.2.10,Win32,60,,,,,,,,,,,,,,,Laugh_F.wav,2,SIMILAR,B,,,2,1,3.68403,0,35,35,35,1,,
,,,,,,,,,,,,,2,5f58e2ebb27d050941be1694,001,2021-03-01_23h42.37.865,GuessTheSound,2020.2.10,Win32,60,,,,,,,,,,,,,,,Initial/Repeat/Cello.wav,3,NEW,B,,,3,1,0.18155,0,36,36,36,1,,
,,,,,,,,,,,,,1,5f58e2ebb27d050941be1694,001,2021-03-01_23h42.37.865,GuessTheSound,2020.2.10,Win32,60,,,,,,,,,,,,,,,Piano_D.wav,1,OLD,B,,,1,1,0.30003,0,37,37,37,1,,
,,,,,,,,,,,,,2,5f58e2ebb27d050941be1694,001,2021-03-01_23h42.37.865,GuessTheSound,2020.2.10,Win32,60,,,,,,,,,,,,,,,Clap_B.wav,3,NEW,B,,,1,0,0.31741,0,38,38,38,1,,
,,,,,,,,,,,,,2,5f58e2ebb27d050941be1694,001,2021-03-01_23h42.37.865,GuessTheSound,2020.2.10,Win32,60,,,,,,,,,,,,,,,Initial/Repeat/Bagpipe.wav,3,NEW,B,,,3,1,0.184125,0,39,39,39,1,,
,,,,,,,,,,,,,2,5f58e2ebb27d050941be1694,001,2021-03-01_23h42.37.865,GuessTheSound,2020.2.10,Win32,60,,,,,,,,,,,,,,,Growl_G.wav,3,NEW,B,,,3,1,0.316945,0,40,40,40,1,,
,,,,,,,,,,,,,2,5f58e2ebb27d050941be1694,001,2021-03-01_23h42.37.865,GuessTheSound,2020.2.10,Win32,60,,,,,,,,,,,,,,,Initial/Repeat/Airplane_B.wav,3,NEW,B,,,3,1,0.06701,0,41,41,41,1,,
,,,,,,,,,,,,,1,5f58e2ebb27d050941be1694,001,2021-03-01_23h42.37.865,GuessTheSound,2020.2.10,Win32,60,,,,,,,,,,,,,,,Initial/NoRepeat/Toilet_B.wav,1,OLD,B,,,1,1,0.23394,0,42,42,42,1,,
,,,,,,,,,,,,,2,5f58e2ebb27d050941be1694,001,2021-03-01_23h42.37.865,GuessTheSound,2020.2.10,Win32,60,,,,,,,,,,,,,,,Initial/NoRepeat/Hammer_A.wav,3,NEW,B,,,3,1,0.70177,0,43,43,43,1,,
,,,,,,,,,,,,,2,5f58e2ebb27d050941be1694,001,2021-03-01_23h42.37.865,GuessTheSound,2020.2.10,Win32,60,,,,,,,,,,,,,,,Goat_D.wav,3,NEW,B,,,3,1,0.21675,0,44,44,44,1,,
,,,,,,,,,,,,,2,5f58e2ebb27d050941be1694,001,2021-03-01_23h42.37.865,GuessTheSound,2020.2.10,Win32,60,,,,,,,,,,,,,,,Coin_D.wav,3,NEW,B,,,3,1,0.08327,0,45,45,45,1,,
,,,,,,,,,,,,,1,5f58e2ebb27d050941be1694,001,2021-03-01_23h42.37.865,GuessTheSound,2020.2.10,Win32,60,,,,,,,,,,,,,,,Initial/NoRepeat/Fireworks.wav,1,OLD,B,,,2,0,0.634,0,46,46,46,1,,
,,,,,,,,,,,,,2,5f58e2ebb27d050941be1694,001,2021-03-01_23h42.37.865,GuessTheSound,2020.2.10,Win32,60,,,,,,,,,,,,,,,Test/Foils/Donkey.wav,3,NEW,B,,,3,1,0.35041,0,47,47,47,1,,
,,,,,,,,,,,,,2,5f58e2ebb27d050941be1694,001,2021-03-01_23h42.37.865,GuessTheSound,2020.2.10,Win32,60,,,,,,,,,,,,,,,Initial/Repeat/Howl.wav,3,NEW,B,,,3,1,0.17946,0,48,48,48,1,,
,,,,,,,,,,,,,1,5f58e2ebb27d050941be1694,001,2021-03-01_23h42.37.865,GuessTheSound,2020.2.10,Win32,60,,,,,,,,,,,,,,,Initial/NoRepeat/Thunder_A.wav,1,OLD,B,,,2,0,0.10021,0,49,49,49,1,,
,,,,,,,,,,,,,2,5f58e2ebb27d050941be1694,001,2021-03-01_23h42.37.865,GuessTheSound,2020.2.10,Win32,60,,,,,,,,,,,,,,,Whistle_C.wav,2,SIMILAR,B,,,2,1,0.305435,0,50,50,50,1,,
,,,,,,,,,,,,,2,5f58e2ebb27d050941be1694,001,2021-03-01_23h42.37.865,GuessTheSound,2020.2.10,Win32,60,,,,,,,,,,,,,,,Initial/NoRepeat/Helicopter_A.wav,3,NEW,B,,,2,0,0.150325,0,51,51,51,1,,
,,,,,,,,,,,,,2,5f58e2ebb27d050941be1694,001,2021-03-01_23h42.37.865,GuessTheSound,2020.2.10,Win32,60,,,,,,,,,,,,,,,Dog_F.wav,2,SIMILAR,B,,,2,1,0.350095,0,52,52,52,1,,
,,,,,,,,,,,,,2,5f58e2ebb27d050941be1694,001,2021-03-01_23h42.37.865,GuessTheSound,2020.2.10,Win32,60,,,,,,,,,,,,,,,Test/Foils/Horse.wav,3,NEW,B,,,3,1,0.20036,0,53,53,53,1,,
,,,,,,,,,,,,,2,5f58e2ebb27d050941be1694,001,2021-03-01_23h42.37.865,GuessTheSound,2020.2.10,Win32,60,,,,,,,,,,,,,,,Chomp_F.wav,3,NEW,B,,,3,1,0.333795,0,54,54,54,1,,
,,,,,,,,,,,,,1,5f58e2ebb27d050941be1694,001,2021-03-01_23h42.37.865,GuessTheSound,2020.2.10,Win32,60,,,,,,,,,,,,,,,Test/Foils/Heartbeat.wav,1,OLD,B,,,1,1,0.300255,0,55,55,55,1,,
,,,,,,,,,,,,,2,5f58e2ebb27d050941be1694,001,2021-03-01_23h42.37.865,GuessTheSound,2020.2.10,Win32,60,,,,,,,,,,,,,,,Clap_C.wav,2,SIMILAR,B,,,2,1,2.599735,0,56,56,56,1,,
,,,,,,,,,,,,,2,5f58e2ebb27d050941be1694,001,2021-03-01_23h42.37.865,GuessTheSound,2020.2.10,Win32,60,,,,,,,,,,,,,,,Crow_B.wav,3,NEW,B,,,3,1,0.25065,0,57,57,57,1,,
,,,,,,,,,,,,,2,5f58e2ebb27d050941be1694,001,2021-03-01_23h42.37.865,GuessTheSound,2020.2.10,Win32,60,,,,,,,,,,,,,,,Growl_H.wav,2,SIMILAR,B,,,1,0,0.283925,0,58,58,58,1,,
,,,,,,,,,,,,,2,5f58e2ebb27d050941be1694,001,2021-03-01_23h42.37.865,GuessTheSound,2020.2.10,Win32,60,,,,,,,,,,,,,,,Initial/Repeat/Printer.wav,3,NEW,B,,,3,1,0.033495,0,59,59,59,1,,
,,,,,,,,,,,,,1,5f58e2ebb27d050941be1694,001,2021-03-01_23h42.37.865,GuessTheSound,2020.2.10,Win32,60,,,,,,,,,,,,,,,Initial/Repeat/Cello.wav,1,OLD,B,,,1,1,2.116665,0,60,60,60,1,,
,,,,,,,,,,,,,2,5f58e2ebb27d050941be1694,001,2021-03-01_23h42.37.865,GuessTheSound,2020.2.10,Win32,60,,,,,,,,,,,,,,,Snore_E.wav,2,SIMILAR,B,,,2,1,0.700065,0,61,61,61,1,,
,,,,,,,,,,,,,2,5f58e2ebb27d050941be1694,001,2021-03-01_23h42.37.865,GuessTheSound,2020.2.10,Win32,60,,,,,,,,,,,,,,,CarStart_F.wav,3,NEW,B,,,3,1,2.000215,0,62,62,62,1,,
,,,,,,,,,,,,,2,5f58e2ebb27d050941be1694,001,2021-03-01_23h42.37.865,GuessTheSound,2020.2.10,Win32,60,,,,,,,,,,,,,,,Goat_C.wav,2,SIMILAR,B,,,1,0,1.73364,0,63,63,63,1,,
,,,,,,,,,,,,,2,5f58e2ebb27d050941be1694,001,2021-03-01_23h42.37.865,GuessTheSound,2020.2.10,Win32,60,,,,,,,,,,,,,,,Coin_E.wav,2,SIMILAR,B,,,1,0,0.25005,0,64,64,64,1,,
,,,,,,,,,,,,,1,5f58e2ebb27d050941be1694,001,2021-03-01_23h42.37.865,GuessTheSound,2020.2.10,Win32,60,,,,,,,,,,,,,,,Initial/Repeat/Howl.wav,1,OLD,B,,,1,1,0.05014,0,65,65,65,1,,
,,,,,,,,,,,,,1,5f58e2ebb27d050941be1694,001,2021-03-01_23h42.37.865,GuessTheSound,2020.2.10,Win32,60,,,,,,,,,,,,,,,Initial/Repeat/Airplane_B.wav,1,OLD,B,,,1,1,0.233905,0,66,66,66,1,,
,,,,,,,,,,,,,1,5f58e2ebb27d050941be1694,001,2021-03-01_23h42.37.865,GuessTheSound,2020.2.10,Win32,60,,,,,,,,,,,,,,,Initial/NoRepeat/Mosquito_B.wav,1,OLD,B,,,3,0,0.083995,0,67,67,67,1,,
,,,,,,,,,,,,,2,5f58e2ebb27d050941be1694,001,2021-03-01_23h42.37.865,GuessTheSound,2020.2.10,Win32,60,,,,,,,,,,,,,,,Initial/NoRepeat/Droplet_B.wav,3,NEW,B,,,2,0,0.16602,0,68,68,68,1,,
,,,,,,,,,,,,,1,5f58e2ebb27d050941be1694,001,2021-03-01_23h42.37.865,GuessTheSound,2020.2.10,Win32,60,,,,,,,,,,,,,,,Test/Foils/Donkey.wav,1,OLD,B,,,1,1,0.23375,0,69,69,69,1,,
,,,,,,,,,,,,,2,5f58e2ebb27d050941be1694,001,2021-03-01_23h42.37.865,GuessTheSound,2020.2.10,Win32,60,,,,,,,,,,,,,,,Test/Lures/Guitar_B.wav,3,NEW,B,,,3,1,0.193695,0,70,70,70,1,,
,,,,,,,,,,,,,1,5f58e2ebb27d050941be1694,001,2021-03-01_23h42.37.865,GuessTheSound,2020.2.10,Win32,60,,,,,,,,,,,,,,,Initial/Repeat/Bagpipe.wav,1,OLD,B,,,1,1,0.734685,0,71,71,71,1,,
,,,,,,,,,,,,,2,5f58e2ebb27d050941be1694,001,2021-03-01_23h42.37.865,GuessTheSound,2020.2.10,Win32,60,,,,,,,,,,,,,,,Initial/NoRepeat/Hammer_A.wav,3,NEW,B,,,1,0,0.08365,0,72,72,72,1,,
,,,,,,,,,,,,,1,5f58e2ebb27d050941be1694,001,2021-03-01_23h42.37.865,GuessTheSound,2020.2.10,Win32,60,,,,,,,,,,,,,,,Initial/NoRepeat/Helicopter_A.wav,1,OLD,B,,,1,1,0.067505,0,73,73,73,1,,
,,,,,,,,,,,,,2,5f58e2ebb27d050941be1694,001,2021-03-01_23h42.37.865,GuessTheSound,2020.2.10,Win32,60,,,,,,,,,,,,,,,Test/Foils/Camera.wav,3,NEW,B,,,3,1,0.967295,0,74,74,74,1,,
,,,,,,,,,,,,,2,5f58e2ebb27d050941be1694,001,2021-03-01_23h42.37.865,GuessTheSound,2020.2.10,Win32,60,,,,,,,,,,,,,,,Test/Foils/Steam.wav,3,NEW,B,,,3,1,0.09996,0,75,75,75,1,,
,,,,,,,,,,,,,1,5f58e2ebb27d050941be1694,001,2021-03-01_23h42.37.865,GuessTheSound,2020.2.10,Win32,60,,,,,,,,,,,,,,,Test/Foils/Horse.wav,1,OLD,B,,,1,1,0.284195,0,76,76,76,1,,
,,,,,,,,,,,,,2,5f58e2ebb27d050941be1694,001,2021-03-01_23h42.37.865,GuessTheSound,2020.2.10,Win32,60,,,,,,,,,,,,,,,Elephant_C.wav,3,NEW,B,,,3,1,0.166845,0,77,77,77,1,,
,,,,,,,,,,,,,1,5f58e2ebb27d050941be1694,001,2021-03-01_23h42.37.865,GuessTheSound,2020.2.10,Win32,60,,,,,,,,,,,,,,,Initial/Repeat/Printer.wav,1,OLD,B,,,1,1,0.250545,0,78,78,78,1,,
,,,,,,,,,,,,,2,5f58e2ebb27d050941be1694,001,2021-03-01_23h42.37.865,GuessTheSound,2020.2.10,Win32,60,,,,,,,,,,,,,,,Crow_A.wav,2,SIMILAR,B,,,1,0,3.000405,0,79,79,79,1,,
,,,,,,,,,,,,,2,5f58e2ebb27d050941be1694,001,2021-03-01_23h42.37.865,GuessTheSound,2020.2.10,Win32,60,,,,,,,,,,,,,,,Initial/Doubled/Bubbles_A.wav,3,NEW,B,,,2,0,0.117255,0,80,80,80,1,,
,,,,,,,,,,,,,2,5f58e2ebb27d050941be1694,001,2021-03-01_23h42.37.865,GuessTheSound,2020.2.10,Win32,60,,,,,,,,,,,,,,,Chomp_E.wav,2,SIMILAR,B,,,2,1,0.3858,0,81,81,81,1,,
,,,,,,,,,,,,,2,5f58e2ebb27d050941be1694,001,2021-03-01_23h42.37.865,GuessTheSound,2020.2.10,Win32,60,,,,,,,,,,,,,,,Test/Foils/Airhorn.wav,3,NEW,B,,,3,1,0.084225,0,82,82,82,1,,
,,,,,,,,,,,,,2,5f58e2ebb27d050941be1694,001,2021-03-01_23h42.37.865,GuessTheSound,2020.2.10,Win32,60,,,,,,,,,,,,,,,Initial/Doubled/Writing_A.wav,3,NEW,B,,,3,1,0.268085,0,83,83,83,1,,
,,,,,,,,,,,,,2,5f58e2ebb27d050941be1694,001,2021-03-01_23h42.37.865,GuessTheSound,2020.2.10,Win32,60,,,,,,,,,,,,,,,Initial/Doubled/Cuckoo_A.wav,3,NEW,B,,,3,1,0.01695,0,84,84,84,1,,
,,,,,,,,,,,,,2,5f58e2ebb27d050941be1694,001,2021-03-01_23h42.37.865,GuessTheSound,2020.2.10,Win32,60,,,,,,,,,,,,,,,Initial/Repeat/IceDrop.wav,3,NEW,B,,,3,1,0.267195,0,85,85,85,1,,
,,,,,,,,,,,,,2,5f58e2ebb27d050941be1694,001,2021-03-01_23h42.37.865,GuessTheSound,2020.2.10,Win32,60,,,,,,,,,,,,,,,CarStart_E.wav,2,SIMILAR,B,,,2,1,0.233685,0,86,86,86,1,,
,,,,,,,,,,,,,2,5f58e2ebb27d050941be1694,001,2021-03-01_23h42.37.865,GuessTheSound,2020.2.10,Win32,60,,,,,,,,,,,,,,,Baby_F.wav,3,NEW,B,,,3,1,0.18458,0,87,87,87,1,,
,,,,,,,,,,,,,2,5f58e2ebb27d050941be1694,001,2021-03-01_23h42.37.865,GuessTheSound,2020.2.10,Win32,60,,,,,,,,,,,,,,,Initial/NoRepeat/Puff_A.wav,3,NEW,B,,,3,1,0.03381,0,88,88,88,1,,
,,,,,,,,,,,,,1,5f58e2ebb27d050941be1694,001,2021-03-01_23h42.37.865,GuessTheSound,2020.2.10,Win32,60,,,,,,,,,,,,,,,Initial/NoRepeat/Droplet_B.wav,1,OLD,B,,,1,1,0.18369,0,89,89,89,1,,
,,,,,,,,,,,,,1,5f58e2ebb27d050941be1694,001,2021-03-01_23h42.37.865,GuessTheSound,2020.2.10,Win32,60,,,,,,,,,,,,,,,Test/Lures/Guitar_B.wav,1,OLD,B,,,1,1,3.53343,0,90,90,90,1,,
,,,,,,,,,,,,,2,5f58e2ebb27d050941be1694,001,2021-03-01_23h42.37.865,GuessTheSound,2020.2.10,Win32,60,,,,,,,,,,,,,,,Initial/Repeat/PaperRip.wav,3,NEW,B,,,3,1,0.16712,0,91,91,91,1,,
,,,,,,,,,,,,,1,5f58e2ebb27d050941be1694,001,2021-03-01_23h42.37.865,GuessTheSound,2020.2.10,Win32,60,,,,,,,,,,,,,,,Initial/NoRepeat/Mosquito_B.wav,1,OLD,B,,,2,0,0.017145,0,92,92,92,1,,
,,,,,,,,,,,,,2,5f58e2ebb27d050941be1694,001,2021-03-01_23h42.37.865,GuessTheSound,2020.2.10,Win32,60,,,,,,,,,,,,,,,Initial/Repeat/Trumpet_B.wav,3,NEW,B,,,3,1,0.166865,0,93,93,93,1,,
,,,,,,,,,,,,,2,5f58e2ebb27d050941be1694,001,2021-03-01_23h42.37.865,GuessTheSound,2020.2.10,Win32,60,,,,,,,,,,,,,,,Test/Foils/Bullfrog.wav,3,NEW,B,,,3,1,0.050155,0,94,94,94,1,,
,,,,,,,,,,,,,2,5f58e2ebb27d050941be1694,001,2021-03-01_23h42.37.865,GuessTheSound,2020.2.10,Win32,60,,,,,,,,,,,,,,,Elephant_D.wav,2,SIMILAR,B,,,1,0,0.083885,0,95,95,95,1,,
,,,,,,,,,,,,,2,5f58e2ebb27d050941be1694,001,2021-03-01_23h42.37.865,GuessTheSound,2020.2.10,Win32,60,,,,,,,,,,,,,,,Initial/Repeat/Sneeze_B.wav,3,NEW,B,,,3,1,0.616955,0,96,96,96,1,,
,,,,,,,,,,,,,1,5f58e2ebb27d050941be1694,001,2021-03-01_23h42.37.865,GuessTheSound,2020.2.10,Win32,60,,,,,,,,,,,,,,,Test/Foils/Camera.wav,1,OLD,B,,,1,1,1.21088,0,97,97,97,1,,
,,,,,,,,,,,,,2,5f58e2ebb27d050941be1694,001,2021-03-01_23h42.37.865,GuessTheSound,2020.2.10,Win32,60,,,,,,,,,,,,,,,Initial/Doubled/Cat_A.wav,3,NEW,B,,,3,1,0.166765,0,98,98,98,1,,
,,,,,,,,,,,,,1,5f58e2ebb27d050941be1694,001,2021-03-01_23h42.37.865,GuessTheSound,2020.2.10,Win32,60,,,,,,,,,,,,,,,Test/Foils/Steam.wav,1,OLD,B,,,1,1,0.15022,0,99,99,99,1,,
,,,,,,,,,,,,,2,5f58e2ebb27d050941be1694,001,2021-03-01_23h42.37.865,GuessTheSound,2020.2.10,Win32,60,,,,,,,,,,,,,,,Writing_C.wav,2,SIMILAR,B,,,2,1,2.3673,0,100,100,100,1,,
,,,,,,,,,,,,,1,5f58e2ebb27d050941be1694,001,2021-03-01_23h42.37.865,GuessTheSound,2020.2.10,Win32,60,,,,,,,,,,,,,,,Initial/Repeat/IceDrop.wav,1,OLD,B,,,1,1,0.9337,0,101,101,101,1,,
,,,,,,,,,,,,,2,5f58e2ebb27d050941be1694,001,2021-03-01_23h42.37.865,GuessTheSound,2020.2.10,Win32,60,,,,,,,,,,,,,,,Test/Foils/Slurp.wav,3,NEW,B,,,3,1,0.189615,0,102,102,102,1,,
,,,,,,,,,,,,,2,5f58e2ebb27d050941be1694,001,2021-03-01_23h42.37.865,GuessTheSound,2020.2.10,Win32,60,,,,,,,,,,,,,,,Baby_E.wav,2,SIMILAR,B,,,2,1,0.19143,0,103,103,103,1,,
,,,,,,,,,,,,,2,5f58e2ebb27d050941be1694,001,2021-03-01_23h42.37.865,GuessTheSound,2020.2.10,Win32,60,,,,,,,,,,,,,,,Test/Foils/DialTone.wav,3,NEW,B,,,2,0,2.90053,0,104,104,104,1,,
,,,,,,,,,,,,,1,5f58e2ebb27d050941be1694,001,2021-03-01_23h42.37.865,GuessTheSound,2020.2.10,Win32,60,,,,,,,,,,,,,,,Initial/NoRepeat/Puff_A.wav,1,OLD,B,,,1,1,0.050155,0,105,105,105,1,,
,,,,,,,,,,,,,2,5f58e2ebb27d050941be1694,001,2021-03-01_23h42.37.865,GuessTheSound,2020.2.10,Win32,60,,,,,,,,,,,,,,,Initial/Repeat/Buzz.wav,3,NEW,B,,,3,1,0.151965,0,106,106,106,1,,
,,,,,,,,,,,,,1,5f58e2ebb27d050941be1694,001,2021-03-01_23h42.37.865,GuessTheSound,2020.2.10,Win32,60,,,,,,,,,,,,,,,Test/Foils/Airhorn.wav,1,OLD,B,,,1,1,0.083505,0,107,107,107,1,,
,,,,,,,,,,,,,2,5f58e2ebb27d050941be1694,001,2021-03-01_23h42.37.865,GuessTheSound,2020.2.10,Win32,60,,,,,,,,,,,,,,,Initial/NoRepeat/Sleighbells_B.wav,3,NEW,B,,,3,1,0.184135,0,108,108,108,1,,
,,,,,,,,,,,,,1,5f58e2ebb27d050941be1694,001,2021-03-01_23h42.37.865,GuessTheSound,2020.2.10,Win32,60,,,,,,,,,,,,,,,Initial/Doubled/Cuckoo_A.wav,1,OLD,B,,,1,1,0.070995,0,109,109,109,1,,
,,,,,,,,,,,,,2,5f58e2ebb27d050941be1694,001,2021-03-01_23h42.37.865,GuessTheSound,2020.2.10,Win32,60,,,,,,,,,,,,,,,Test/Foils/Wind_B.wav,3,NEW,B,,,3,1,0.33332,0,110,110,110,1,,
,,,,,,,,,,,,,2,5f58e2ebb27d050941be1694,001,2021-03-01_23h42.37.865,GuessTheSound,2020.2.10,Win32,60,,,,,,,,,,,,,,,Test/Foils/Typing.wav,3,NEW,B,,,3,1,0.16682,0,111,111,111,1,,
,,,,,,,,,,,,,2,5f58e2ebb27d050941be1694,001,2021-03-01_23h42.37.865,GuessTheSound,2020.2.10,Win32,60,,,,,,,,,,,,,,,Test/Lures/Bubbles_B.wav,2,SIMILAR,B,,,3,0,0.63427,0,112,112,112,1,,
,,,,,,,,,,,,,2,5f58e2ebb27d050941be1694,001,2021-03-01_23h42.37.865,GuessTheSound,2020.2.10,Win32,60,,,,,,,,,,,,,,,Duck_A.wav,3,NEW,B,,,3,1,0.592505,0,113,113,113,1,,
,,,,,,,,,,,,,1,5f58e2ebb27d050941be1694,001,2021-03-01_23h42.37.865,GuessTheSound,2020.2.10,Win32,60,,,,,,,,,,,,,,,Initial/Repeat/Trumpet_B.wav,1,OLD,B,,,2,0,0.34952,0,114,114,114,1,,
,,,,,,,,,,,,,1,5f58e2ebb27d050941be1694,001,2021-03-01_23h42.37.865,GuessTheSound,2020.2.10,Win32,60,,,,,,,,,,,,,,,Initial/Repeat/PaperRip.wav,1,OLD,B,,,1,1,0.17436,0,115,115,115,1,,
,,,,,,,,,,,,,1,5f58e2ebb27d050941be1694,001,2021-03-01_23h42.37.865,GuessTheSound,2020.2.10,Win32,60,,,,,,,,,,,,,,,Initial/Repeat/Sneeze_B.wav,1,OLD,B,,,2,0,0.58339,0,116,116,116,1,,
,,,,,,,,,,,,,2,5f58e2ebb27d050941be1694,001,2021-03-01_23h42.37.865,GuessTheSound,2020.2.10,Win32,60,,,,,,,,,,,,,,,Pour_E.wav,3,NEW,B,,,2,0,0.26687,0,117,117,117,1,,
,,,,,,,,,,,,,1,5f58e2ebb27d050941be1694,001,2021-03-01_23h42.37.865,GuessTheSound,2020.2.10,Win32,60,,,,,,,,,,,,,,,Initial/Doubled/Cat_A.wav,1,OLD,B,,,3,0,0.302665,0,118,118,118,1,,
,,,,,,,,,,,,,1,5f58e2ebb27d050941be1694,001,2021-03-01_23h42.37.865,GuessTheSound,2020.2.10,Win32,60,,,,,,,,,,,,,,,Test/Foils/Slurp.wav,1,OLD,B,,,2,0,1.650345,0,119,119,119,1,,
,,,,,,,,,,,,,1,5f58e2ebb27d050941be1694,001,2021-03-01_23h42.37.865,GuessTheSound,2020.2.10,Win32,60,,,,,,,,,,,,,,,Test/Foils/Bullfrog.wav,1,OLD,B,,,2,0,0.26684,0,120,120,120,1,,
,,,,,,,,,,,,,1,5f58e2ebb27d050941be1694,001,2021-03-01_23h42.37.865,GuessTheSound,2020.2.10,Win32,60,,,,,,,,,,,,,,,Test/Foils/Wind_B.wav,1,OLD,B,,,1,1,0.100255,0,121,121,121,1,,
,,,,,,,,,,,,,2,5f58e2ebb27d050941be1694,001,2021-03-01_23h42.37.865,GuessTheSound,2020.2.10,Win32,60,,,,,,,,,,,,,,,Duck_B.wav,2,SIMILAR,B,,,1,0,1.083725,0,122,122,122,1,,
,,,,,,,,,,,,,1,5f58e2ebb27d050941be1694,001,2021-03-01_23h42.37.865,GuessTheSound,2020.2.10,Win32,60,,,,,,,,,,,,,,,Test/Foils/DialTone.wav,1,OLD,B,,,1,1,0.15911,0,123,123,123,1,,
,,,,,,,,,,,,,1,5f58e2ebb27d050941be1694,001,2021-03-01_23h42.37.865,GuessTheSound,2020.2.10,Win32,60,,,,,,,,,,,,,,,Initial/Repeat/Buzz.wav,1,OLD,B,,,2,0,0.61733,0,124,124,124,1,,
,,,,,,,,,,,,,2,5f58e2ebb27d050941be1694,001,2021-03-01_23h42.37.865,GuessTheSound,2020.2.10,Win32,60,,,,,,,,,,,,,,,Pour_C.wav,2,SIMILAR,B,,,1,0,0.767105,0,125,125,125,1,,
,,,,,,,,,,,,,1,5f58e2ebb27d050941be1694,001,2021-03-01_23h42.37.865,GuessTheSound,2020.2.10,Win32,60,,,,,,,,,,,,,,,Test/Foils/Typing.wav,1,OLD,B,,,1,1,0.25075,0,126,126,126,1,,
,,,,,,,,,,,,,,5f58e2ebb27d050941be1694,001,2021-03-01_23h42.37.865,GuessTheSound,2020.2.10,Win32,60,,,,,,,,,,,,,,,,,,,,,,,,,,,,,space,19.99752
