VolumeContinueKey.keys,VolumeContinueKey.rt,HeadphoneContinueKey.keys,HeadphoneContinueKey.rt,CheckResp.keys,CheckResp.corr,CheckResp.rt,trials_2.thisRepN,trials_2.thisTrialN,trials_2.thisN,trials_2.thisIndex,trials_2.ran,File,Correct,participant,session,date,expName,psychopyVersion,OS,frameRate,ContinueResp.keys,ContinueResp.rt,Wel2ContinueKey.keys,Wel2ContinueKey.rt,WelcomeContinueKey2.keys,WelcomeContinueKey2.rt,Practice_resp.keys,Practice_resp.corr,Practice_resp.rt,PracticeLoop.thisRepN,PracticeLoop.thisTrialN,PracticeLoop.thisN,PracticeLoop.thisIndex,PracticeLoop.ran,SoundFile,Correct2,Type,Trial,StartTast.keys,StartTast.rt,MSTResp.keys,MSTResp.corr,MSTResp.rt,trials.thisRepN,trials.thisTrialN,trials.thisN,trials.thisIndex,trials.ran,ExitKey.keys,ExitKey.rt
space,2.71902,space,7.73127,2,1,0.987245,0,0,0,2,1,Headphone/t2_1.wav,2,5f9e19ae97b3c23c6eaafc96,001,2021-03-03_00h23.52.424,GuessTheSound,2020.2.10,Win32,60,,,,,,,,,,,,,,,,,,,,,,,,,,,,,,
,,,,3,1,0.418635,0,1,1,5,1,Headphone/t3_2.wav,3,5f9e19ae97b3c23c6eaafc96,001,2021-03-03_00h23.52.424,GuessTheSound,2020.2.10,Win32,60,,,,,,,,,,,,,,,,,,,,,,,,,,,,,,
,,,,1,1,0.429415,0,2,2,1,1,Headphone/t1_2.wav,1,5f9e19ae97b3c23c6eaafc96,001,2021-03-03_00h23.52.424,GuessTheSound,2020.2.10,Win32,60,,,,,,,,,,,,,,,,,,,,,,,,,,,,,,
,,,,2,1,0.495735,0,3,3,3,1,Headphone/t2_2.wav,2,5f9e19ae97b3c23c6eaafc96,001,2021-03-03_00h23.52.424,GuessTheSound,2020.2.10,Win32,60,,,,,,,,,,,,,,,,,,,,,,,,,,,,,,
,,,,3,1,0.06773,0,4,4,4,1,Headphone/t3_1.wav,3,5f9e19ae97b3c23c6eaafc96,001,2021-03-03_00h23.52.424,GuessTheSound,2020.2.10,Win32,60,,,,,,,,,,,,,,,,,,,,,,,,,,,,,,
,,,,1,1,0.36698,0,5,5,0,1,Headphone/t1_1.wav,1,5f9e19ae97b3c23c6eaafc96,001,2021-03-03_00h23.52.424,GuessTheSound,2020.2.10,Win32,60,,,,,,,,,,,,,,,,,,,,,,,,,,,,,,
,,,,,,,,,,,,,2,5f9e19ae97b3c23c6eaafc96,001,2021-03-03_00h23.52.424,GuessTheSound,2020.2.10,Win32,60,space,17.27594,space,18.123745,space,2.969675,3,1,2.52583,0,0,0,0,1,Practice/Seagull_A.wav,3,NEW,Practice,,,,,,,,,,,,
,,,,,,,,,,,,,2,5f9e19ae97b3c23c6eaafc96,001,2021-03-03_00h23.52.424,GuessTheSound,2020.2.10,Win32,60,,,,,,,3,1,1.601125,0,1,1,1,1,Practice/Skid_B.wav,3,NEW,Practice,,,,,,,,,,,,
,,,,,,,,,,,,,1,5f9e19ae97b3c23c6eaafc96,001,2021-03-03_00h23.52.424,GuessTheSound,2020.2.10,Win32,60,,,,,,,1,1,1.093755,0,2,2,2,1,Practice/Seagull_A.wav,1,OLD,Practice,,,,,,,,,,,,
,,,,,,,,,,,,,2,5f9e19ae97b3c23c6eaafc96,001,2021-03-03_00h23.52.424,GuessTheSound,2020.2.10,Win32,60,,,,,,,3,1,0.601695,0,3,3,3,1,Practice/Gargle_A.wav,3,NEW,Practice,,,,,,,,,,,,
,,,,,,,,,,,,,2,5f9e19ae97b3c23c6eaafc96,001,2021-03-03_00h23.52.424,GuessTheSound,2020.2.10,Win32,60,,,,,,,2,1,0.532355,0,4,4,4,1,Practice/Gargle_B.wav,2,SIMILAR,Practice,,,,,,,,,,,,
,,,,,,,,,,,,,2,5f9e19ae97b3c23c6eaafc96,001,2021-03-03_00h23.52.424,GuessTheSound,2020.2.10,Win32,60,,,,,,,,,,,,,,,CarStart_F.wav,3,NEW,C,space,3.741195,3,1,3.1509,0,0,0,0,1,,
,,,,,,,,,,,,,2,5f9e19ae97b3c23c6eaafc96,001,2021-03-03_00h23.52.424,GuessTheSound,2020.2.10,Win32,60,,,,,,,,,,,,,,,Bird_E.wav,3,NEW,C,,,3,1,0.550845,0,1,1,1,1,,
,,,,,,,,,,,,,2,5f9e19ae97b3c23c6eaafc96,001,2021-03-03_00h23.52.424,GuessTheSound,2020.2.10,Win32,60,,,,,,,,,,,,,,,Initial/Doubled/Bubbles_A.wav,3,NEW,C,,,3,1,0.37895,0,2,2,2,1,,
,,,,,,,,,,,,,2,5f9e19ae97b3c23c6eaafc96,001,2021-03-03_00h23.52.424,GuessTheSound,2020.2.10,Win32,60,,,,,,,,,,,,,,,Test/Foils/Horse.wav,3,NEW,C,,,3,1,0.322205,0,3,3,3,1,,
,,,,,,,,,,,,,2,5f9e19ae97b3c23c6eaafc96,001,2021-03-03_00h23.52.424,GuessTheSound,2020.2.10,Win32,60,,,,,,,,,,,,,,,Initial/Repeat/IceDrop.wav,3,NEW,C,,,3,1,0.35226,0,4,4,4,1,,
,,,,,,,,,,,,,2,5f9e19ae97b3c23c6eaafc96,001,2021-03-03_00h23.52.424,GuessTheSound,2020.2.10,Win32,60,,,,,,,,,,,,,,,Initial/NoRepeat/Sleighbells_B.wav,3,NEW,C,,,3,1,0.018625,0,5,5,5,1,,
,,,,,,,,,,,,,2,5f9e19ae97b3c23c6eaafc96,001,2021-03-03_00h23.52.424,GuessTheSound,2020.2.10,Win32,60,,,,,,,,,,,,,,,Growl_G.wav,3,NEW,C,,,3,1,0.425635,0,6,6,6,1,,
,,,,,,,,,,,,,2,5f9e19ae97b3c23c6eaafc96,001,2021-03-03_00h23.52.424,GuessTheSound,2020.2.10,Win32,60,,,,,,,,,,,,,,,Initial/Doubled/Chicken_A.wav,3,NEW,C,,,3,1,0.45667,0,7,7,7,1,,
,,,,,,,,,,,,,2,5f9e19ae97b3c23c6eaafc96,001,2021-03-03_00h23.52.424,GuessTheSound,2020.2.10,Win32,60,,,,,,,,,,,,,,,Test/Foils/Slurp.wav,3,NEW,C,,,2,0,2.170575,0,8,8,8,1,,
,,,,,,,,,,,,,2,5f9e19ae97b3c23c6eaafc96,001,2021-03-03_00h23.52.424,GuessTheSound,2020.2.10,Win32,60,,,,,,,,,,,,,,,CarStart_E.wav,2,SIMILAR,C,,,1,0,0.54448,0,9,9,9,1,,
,,,,,,,,,,,,,2,5f9e19ae97b3c23c6eaafc96,001,2021-03-03_00h23.52.424,GuessTheSound,2020.2.10,Win32,60,,,,,,,,,,,,,,,Initial/Repeat/Printer.wav,3,NEW,C,,,3,1,0.373065,0,10,10,10,1,,
,,,,,,,,,,,,,2,5f9e19ae97b3c23c6eaafc96,001,2021-03-03_00h23.52.424,GuessTheSound,2020.2.10,Win32,60,,,,,,,,,,,,,,,Test/Foils/Bowlingpins.wav,3,NEW,C,,,3,1,0.898065,0,11,11,11,1,,
,,,,,,,,,,,,,2,5f9e19ae97b3c23c6eaafc96,001,2021-03-03_00h23.52.424,GuessTheSound,2020.2.10,Win32,60,,,,,,,,,,,,,,,Initial/NoRepeat/Fireworks.wav,3,NEW,C,,,3,1,0.84901,0,12,12,12,1,,
,,,,,,,,,,,,,2,5f9e19ae97b3c23c6eaafc96,001,2021-03-03_00h23.52.424,GuessTheSound,2020.2.10,Win32,60,,,,,,,,,,,,,,,Initial/Repeat/Howl.wav,3,NEW,C,,,3,1,0.47302,0,13,13,13,1,,
,,,,,,,,,,,,,2,5f9e19ae97b3c23c6eaafc96,001,2021-03-03_00h23.52.424,GuessTheSound,2020.2.10,Win32,60,,,,,,,,,,,,,,,Goat_D.wav,3,NEW,C,,,3,1,0.302675,0,14,14,14,1,,
,,,,,,,,,,,,,1,5f9e19ae97b3c23c6eaafc96,001,2021-03-03_00h23.52.424,GuessTheSound,2020.2.10,Win32,60,,,,,,,,,,,,,,,Test/Foils/Horse.wav,1,OLD,C,,,1,1,0.550565,0,15,15,15,1,,
,,,,,,,,,,,,,2,5f9e19ae97b3c23c6eaafc96,001,2021-03-03_00h23.52.424,GuessTheSound,2020.2.10,Win32,60,,,,,,,,,,,,,,,Laugh_C.wav,3,NEW,C,,,3,1,0.31094,0,16,16,16,1,,
,,,,,,,,,,,,,2,5f9e19ae97b3c23c6eaafc96,001,2021-03-03_00h23.52.424,GuessTheSound,2020.2.10,Win32,60,,,,,,,,,,,,,,,Test/Lures/Bubbles_B.wav,2,SIMILAR,C,,,2,1,0.34077,0,17,17,17,1,,
,,,,,,,,,,,,,2,5f9e19ae97b3c23c6eaafc96,001,2021-03-03_00h23.52.424,GuessTheSound,2020.2.10,Win32,60,,,,,,,,,,,,,,,Footsteps_G.wav,3,NEW,C,,,3,1,2.480245,0,18,18,18,1,,
,,,,,,,,,,,,,2,5f9e19ae97b3c23c6eaafc96,001,2021-03-03_00h23.52.424,GuessTheSound,2020.2.10,Win32,60,,,,,,,,,,,,,,,Duck_C.wav,3,NEW,C,,,2,0,1.698355,0,19,19,19,1,,
,,,,,,,,,,,,,2,5f9e19ae97b3c23c6eaafc96,001,2021-03-03_00h23.52.424,GuessTheSound,2020.2.10,Win32,60,,,,,,,,,,,,,,,Initial/NoRepeat/Cow.wav,3,NEW,C,,,3,1,1.210725,0,20,20,20,1,,
,,,,,,,,,,,,,2,5f9e19ae97b3c23c6eaafc96,001,2021-03-03_00h23.52.424,GuessTheSound,2020.2.10,Win32,60,,,,,,,,,,,,,,,Test/Foils/Airhorn.wav,3,NEW,C,,,3,1,0.4712,0,21,21,21,1,,
,,,,,,,,,,,,,1,5f9e19ae97b3c23c6eaafc96,001,2021-03-03_00h23.52.424,GuessTheSound,2020.2.10,Win32,60,,,,,,,,,,,,,,,Initial/Repeat/Printer.wav,1,OLD,C,,,1,1,0.418095,0,22,22,22,1,,
,,,,,,,,,,,,,1,5f9e19ae97b3c23c6eaafc96,001,2021-03-03_00h23.52.424,GuessTheSound,2020.2.10,Win32,60,,,,,,,,,,,,,,,Initial/NoRepeat/Sleighbells_B.wav,1,OLD,C,,,1,1,0.633945,0,23,23,23,1,,
,,,,,,,,,,,,,2,5f9e19ae97b3c23c6eaafc96,001,2021-03-03_00h23.52.424,GuessTheSound,2020.2.10,Win32,60,,,,,,,,,,,,,,,Test/Foils/Camera.wav,3,NEW,C,,,3,1,0.516935,0,24,24,24,1,,
,,,,,,,,,,,,,2,5f9e19ae97b3c23c6eaafc96,001,2021-03-03_00h23.52.424,GuessTheSound,2020.2.10,Win32,60,,,,,,,,,,,,,,,Growl_H.wav,2,SIMILAR,C,,,1,0,0.569425,0,25,25,25,1,,
,,,,,,,,,,,,,2,5f9e19ae97b3c23c6eaafc96,001,2021-03-03_00h23.52.424,GuessTheSound,2020.2.10,Win32,60,,,,,,,,,,,,,,,Whistle_A.wav,3,NEW,C,,,3,1,0.85065,0,26,26,26,1,,
,,,,,,,,,,,,,2,5f9e19ae97b3c23c6eaafc96,001,2021-03-03_00h23.52.424,GuessTheSound,2020.2.10,Win32,60,,,,,,,,,,,,,,,Piano_D.wav,3,NEW,C,,,3,1,0.057585,0,27,27,27,1,,
,,,,,,,,,,,,,2,5f9e19ae97b3c23c6eaafc96,001,2021-03-03_00h23.52.424,GuessTheSound,2020.2.10,Win32,60,,,,,,,,,,,,,,,Coin_D.wav,3,NEW,C,,,3,1,0.34742,0,28,28,28,1,,
,,,,,,,,,,,,,2,5f9e19ae97b3c23c6eaafc96,001,2021-03-03_00h23.52.424,GuessTheSound,2020.2.10,Win32,60,,,,,,,,,,,,,,,Bird_F.wav,2,SIMILAR,C,,,2,1,0.617165,0,29,29,29,1,,
,,,,,,,,,,,,,2,5f9e19ae97b3c23c6eaafc96,001,2021-03-03_00h23.52.424,GuessTheSound,2020.2.10,Win32,60,,,,,,,,,,,,,,,Initial/Repeat/PaperRip.wav,3,NEW,C,,,3,1,0.38563,0,30,30,30,1,,
,,,,,,,,,,,,,1,5f9e19ae97b3c23c6eaafc96,001,2021-03-03_00h23.52.424,GuessTheSound,2020.2.10,Win32,60,,,,,,,,,,,,,,,Test/Foils/Slurp.wav,1,OLD,C,,,1,1,0.56748,0,31,31,31,1,,
,,,,,,,,,,,,,1,5f9e19ae97b3c23c6eaafc96,001,2021-03-03_00h23.52.424,GuessTheSound,2020.2.10,Win32,60,,,,,,,,,,,,,,,Initial/Repeat/Howl.wav,1,OLD,C,,,1,1,0.319945,0,32,32,32,1,,
,,,,,,,,,,,,,1,5f9e19ae97b3c23c6eaafc96,001,2021-03-03_00h23.52.424,GuessTheSound,2020.2.10,Win32,60,,,,,,,,,,,,,,,Initial/Repeat/IceDrop.wav,1,OLD,C,,,1,1,0.456495,0,33,33,33,1,,
,,,,,,,,,,,,,2,5f9e19ae97b3c23c6eaafc96,001,2021-03-03_00h23.52.424,GuessTheSound,2020.2.10,Win32,60,,,,,,,,,,,,,,,Pour_E.wav,3,NEW,C,,,3,1,0.441275,0,34,34,34,1,,
,,,,,,,,,,,,,1,5f9e19ae97b3c23c6eaafc96,001,2021-03-03_00h23.52.424,GuessTheSound,2020.2.10,Win32,60,,,,,,,,,,,,,,,Initial/NoRepeat/Fireworks.wav,1,OLD,C,,,1,1,1.12546,0,35,35,35,1,,
,,,,,,,,,,,,,2,5f9e19ae97b3c23c6eaafc96,001,2021-03-03_00h23.52.424,GuessTheSound,2020.2.10,Win32,60,,,,,,,,,,,,,,,Footsteps_F.wav,2,SIMILAR,C,,,1,0,0.401525,0,36,36,36,1,,
,,,,,,,,,,,,,1,5f9e19ae97b3c23c6eaafc96,001,2021-03-03_00h23.52.424,GuessTheSound,2020.2.10,Win32,60,,,,,,,,,,,,,,,Initial/Doubled/Chicken_A.wav,1,OLD,C,,,1,1,0.39524,0,37,37,37,1,,
,,,,,,,,,,,,,2,5f9e19ae97b3c23c6eaafc96,001,2021-03-03_00h23.52.424,GuessTheSound,2020.2.10,Win32,60,,,,,,,,,,,,,,,Test/Foils/Bullfrog.wav,3,NEW,C,,,3,1,0.4118,0,38,38,38,1,,
,,,,,,,,,,,,,1,5f9e19ae97b3c23c6eaafc96,001,2021-03-03_00h23.52.424,GuessTheSound,2020.2.10,Win32,60,,,,,,,,,,,,,,,Test/Foils/Bowlingpins.wav,1,OLD,C,,,3,0,0.325075,0,39,39,39,1,,
,,,,,,,,,,,,,2,5f9e19ae97b3c23c6eaafc96,001,2021-03-03_00h23.52.424,GuessTheSound,2020.2.10,Win32,60,,,,,,,,,,,,,,,Initial/NoRepeat/Helicopter_A.wav,3,NEW,C,,,3,1,0.441615,0,40,40,40,1,,
,,,,,,,,,,,,,2,5f9e19ae97b3c23c6eaafc96,001,2021-03-03_00h23.52.424,GuessTheSound,2020.2.10,Win32,60,,,,,,,,,,,,,,,Goat_E.wav,2,SIMILAR,C,,,1,0,0.390705,0,41,41,41,1,,
,,,,,,,,,,,,,2,5f9e19ae97b3c23c6eaafc96,001,2021-03-03_00h23.52.424,GuessTheSound,2020.2.10,Win32,60,,,,,,,,,,,,,,,Initial/Doubled/HairDryer_A.wav,3,NEW,C,,,3,1,1.38395,0,42,42,42,1,,
,,,,,,,,,,,,,2,5f9e19ae97b3c23c6eaafc96,001,2021-03-03_00h23.52.424,GuessTheSound,2020.2.10,Win32,60,,,,,,,,,,,,,,,Duck_D.wav,2,SIMILAR,C,,,2,1,0.639845,0,43,43,43,1,,
,,,,,,,,,,,,,1,5f9e19ae97b3c23c6eaafc96,001,2021-03-03_00h23.52.424,GuessTheSound,2020.2.10,Win32,60,,,,,,,,,,,,,,,Initial/Repeat/PaperRip.wav,1,OLD,C,,,1,1,0.507745,0,44,44,44,1,,
,,,,,,,,,,,,,2,5f9e19ae97b3c23c6eaafc96,001,2021-03-03_00h23.52.424,GuessTheSound,2020.2.10,Win32,60,,,,,,,,,,,,,,,Dog_E.wav,3,NEW,C,,,3,1,0.438055,0,45,45,45,1,,
,,,,,,,,,,,,,1,5f9e19ae97b3c23c6eaafc96,001,2021-03-03_00h23.52.424,GuessTheSound,2020.2.10,Win32,60,,,,,,,,,,,,,,,Test/Foils/Camera.wav,1,OLD,C,,,1,1,1.15052,0,46,46,46,1,,
,,,,,,,,,,,,,2,5f9e19ae97b3c23c6eaafc96,001,2021-03-03_00h23.52.424,GuessTheSound,2020.2.10,Win32,60,,,,,,,,,,,,,,,Laugh_F.wav,2,SIMILAR,C,,,1,0,0.70283,0,47,47,47,1,,
,,,,,,,,,,,,,2,5f9e19ae97b3c23c6eaafc96,001,2021-03-03_00h23.52.424,GuessTheSound,2020.2.10,Win32,60,,,,,,,,,,,,,,,Initial/Repeat/Sneeze_B.wav,3,NEW,C,,,3,1,0.3998,0,48,48,48,1,,
,,,,,,,,,,,,,1,5f9e19ae97b3c23c6eaafc96,001,2021-03-03_00h23.52.424,GuessTheSound,2020.2.10,Win32,60,,,,,,,,,,,,,,,Initial/NoRepeat/Cow.wav,1,OLD,C,,,2,0,0.545865,0,49,49,49,1,,
,,,,,,,,,,,,,2,5f9e19ae97b3c23c6eaafc96,001,2021-03-03_00h23.52.424,GuessTheSound,2020.2.10,Win32,60,,,,,,,,,,,,,,,Test/Foils/Donkey.wav,3,NEW,C,,,3,1,0.41314,0,50,50,50,1,,
,,,,,,,,,,,,,2,5f9e19ae97b3c23c6eaafc96,001,2021-03-03_00h23.52.424,GuessTheSound,2020.2.10,Win32,60,,,,,,,,,,,,,,,Coin_E.wav,2,SIMILAR,C,,,1,0,0.588845,0,51,51,51,1,,
,,,,,,,,,,,,,2,5f9e19ae97b3c23c6eaafc96,001,2021-03-03_00h23.52.424,GuessTheSound,2020.2.10,Win32,60,,,,,,,,,,,,,,,Initial/Repeat/Buzz.wav,3,NEW,C,,,3,1,0.46837,0,52,52,52,1,,
,,,,,,,,,,,,,1,5f9e19ae97b3c23c6eaafc96,001,2021-03-03_00h23.52.424,GuessTheSound,2020.2.10,Win32,60,,,,,,,,,,,,,,,Piano_D.wav,1,OLD,C,,,1,1,0.32862,0,53,53,53,1,,
,,,,,,,,,,,,,2,5f9e19ae97b3c23c6eaafc96,001,2021-03-03_00h23.52.424,GuessTheSound,2020.2.10,Win32,60,,,,,,,,,,,,,,,Initial/NoRepeat/Hammer_A.wav,3,NEW,C,,,3,1,0.353835,0,54,54,54,1,,
,,,,,,,,,,,,,1,5f9e19ae97b3c23c6eaafc96,001,2021-03-03_00h23.52.424,GuessTheSound,2020.2.10,Win32,60,,,,,,,,,,,,,,,Test/Foils/Airhorn.wav,1,OLD,C,,,3,0,0.602345,0,55,55,55,1,,
,,,,,,,,,,,,,2,5f9e19ae97b3c23c6eaafc96,001,2021-03-03_00h23.52.424,GuessTheSound,2020.2.10,Win32,60,,,,,,,,,,,,,,,Whistle_C.wav,2,SIMILAR,C,,,1,0,0.53392,0,56,56,56,1,,
,,,,,,,,,,,,,2,5f9e19ae97b3c23c6eaafc96,001,2021-03-03_00h23.52.424,GuessTheSound,2020.2.10,Win32,60,,,,,,,,,,,,,,,Faucet_D.wav,3,NEW,C,,,2,0,0.833725,0,57,57,57,1,,
,,,,,,,,,,,,,2,5f9e19ae97b3c23c6eaafc96,001,2021-03-03_00h23.52.424,GuessTheSound,2020.2.10,Win32,60,,,,,,,,,,,,,,,Pour_C.wav,2,SIMILAR,C,,,1,0,0.827585,0,58,58,58,1,,
,,,,,,,,,,,,,2,5f9e19ae97b3c23c6eaafc96,001,2021-03-03_00h23.52.424,GuessTheSound,2020.2.10,Win32,60,,,,,,,,,,,,,,,Crow_B.wav,3,NEW,C,,,3,1,0.392525,0,59,59,59,1,,
,,,,,,,,,,,,,2,5f9e19ae97b3c23c6eaafc96,001,2021-03-03_00h23.52.424,GuessTheSound,2020.2.10,Win32,60,,,,,,,,,,,,,,,Initial/Repeat/Trumpet_B.wav,3,NEW,C,,,3,1,0.339925,0,60,60,60,1,,
,,,,,,,,,,,,,1,5f9e19ae97b3c23c6eaafc96,001,2021-03-03_00h23.52.424,GuessTheSound,2020.2.10,Win32,60,,,,,,,,,,,,,,,Test/Foils/Bullfrog.wav,1,OLD,C,,,1,1,0.40589,0,61,61,61,1,,
,,,,,,,,,,,,,1,5f9e19ae97b3c23c6eaafc96,001,2021-03-03_00h23.52.424,GuessTheSound,2020.2.10,Win32,60,,,,,,,,,,,,,,,Initial/NoRepeat/Helicopter_A.wav,1,OLD,C,,,1,1,0.400645,0,62,62,62,1,,
,,,,,,,,,,,,,2,5f9e19ae97b3c23c6eaafc96,001,2021-03-03_00h23.52.424,GuessTheSound,2020.2.10,Win32,60,,,,,,,,,,,,,,,Elephant_C.wav,3,NEW,C,,,3,1,0.303695,0,63,63,63,1,,
,,,,,,,,,,,,,1,5f9e19ae97b3c23c6eaafc96,001,2021-03-03_00h23.52.424,GuessTheSound,2020.2.10,Win32,60,,,,,,,,,,,,,,,Initial/Repeat/Sneeze_B.wav,1,OLD,C,,,1,1,0.943875,0,64,64,64,1,,
,,,,,,,,,,,,,2,5f9e19ae97b3c23c6eaafc96,001,2021-03-03_00h23.52.424,GuessTheSound,2020.2.10,Win32,60,,,,,,,,,,,,,,,Chime_B.wav,3,NEW,C,,,3,1,0.723,0,65,65,65,1,,
,,,,,,,,,,,,,2,5f9e19ae97b3c23c6eaafc96,001,2021-03-03_00h23.52.424,GuessTheSound,2020.2.10,Win32,60,,,,,,,,,,,,,,,Phone_D.wav,3,NEW,C,,,3,1,0.29333,0,66,66,66,1,,
,,,,,,,,,,,,,1,5f9e19ae97b3c23c6eaafc96,001,2021-03-03_00h23.52.424,GuessTheSound,2020.2.10,Win32,60,,,,,,,,,,,,,,,Initial/Doubled/HairDryer_A.wav,1,OLD,C,,,1,1,0.39069,0,67,67,67,1,,
,,,,,,,,,,,,,2,5f9e19ae97b3c23c6eaafc96,001,2021-03-03_00h23.52.424,GuessTheSound,2020.2.10,Win32,60,,,,,,,,,,,,,,,Initial/NoRepeat/Puff_A.wav,3,NEW,C,,,3,1,1.30268,0,68,68,68,1,,
,,,,,,,,,,,,,2,5f9e19ae97b3c23c6eaafc96,001,2021-03-03_00h23.52.424,GuessTheSound,2020.2.10,Win32,60,,,,,,,,,,,,,,,Dog_F.wav,2,SIMILAR,C,,,2,1,0.516855,0,69,69,69,1,,
,,,,,,,,,,,,,1,5f9e19ae97b3c23c6eaafc96,001,2021-03-03_00h23.52.424,GuessTheSound,2020.2.10,Win32,60,,,,,,,,,,,,,,,Test/Foils/Donkey.wav,1,OLD,C,,,1,1,0.34217,0,70,70,70,1,,
,,,,,,,,,,,,,2,5f9e19ae97b3c23c6eaafc96,001,2021-03-03_00h23.52.424,GuessTheSound,2020.2.10,Win32,60,,,,,,,,,,,,,,,Initial/NoRepeat/Toilet_B.wav,3,NEW,C,,,3,1,4.467995,0,71,71,71,1,,
,,,,,,,,,,,,,2,5f9e19ae97b3c23c6eaafc96,001,2021-03-03_00h23.52.424,GuessTheSound,2020.2.10,Win32,60,,,,,,,,,,,,,,,Initial/Doubled/Writing_A.wav,3,NEW,C,,,2,0,1.807375,0,72,72,72,1,,
,,,,,,,,,,,,,2,5f9e19ae97b3c23c6eaafc96,001,2021-03-03_00h23.52.424,GuessTheSound,2020.2.10,Win32,60,,,,,,,,,,,,,,,Initial/Repeat/Cello.wav,3,NEW,C,,,3,1,9.63281,0,73,73,73,1,,
,,,,,,,,,,,,,2,5f9e19ae97b3c23c6eaafc96,001,2021-03-03_00h23.52.424,GuessTheSound,2020.2.10,Win32,60,,,,,,,,,,,,,,,Crow_A.wav,2,SIMILAR,C,,,1,0,4.877045,0,74,74,74,1,,
,,,,,,,,,,,,,1,5f9e19ae97b3c23c6eaafc96,001,2021-03-03_00h23.52.424,GuessTheSound,2020.2.10,Win32,60,,,,,,,,,,,,,,,Initial/NoRepeat/Hammer_A.wav,1,OLD,C,,,2,0,0.36723,0,75,75,75,1,,
,,,,,,,,,,,,,2,5f9e19ae97b3c23c6eaafc96,001,2021-03-03_00h23.52.424,GuessTheSound,2020.2.10,Win32,60,,,,,,,,,,,,,,,Initial/Doubled/Cuckoo_A.wav,3,NEW,C,,,3,1,0.399175,0,76,76,76,1,,
,,,,,,,,,,,,,1,5f9e19ae97b3c23c6eaafc96,001,2021-03-03_00h23.52.424,GuessTheSound,2020.2.10,Win32,60,,,,,,,,,,,,,,,Initial/Repeat/Buzz.wav,1,OLD,C,,,1,1,0.4231,0,77,77,77,1,,
,,,,,,,,,,,,,2,5f9e19ae97b3c23c6eaafc96,001,2021-03-03_00h23.52.424,GuessTheSound,2020.2.10,Win32,60,,,,,,,,,,,,,,,Siren_E.wav,3,NEW,C,,,3,1,0.39268,0,78,78,78,1,,
,,,,,,,,,,,,,1,5f9e19ae97b3c23c6eaafc96,001,2021-03-03_00h23.52.424,GuessTheSound,2020.2.10,Win32,60,,,,,,,,,,,,,,,Initial/Repeat/Trumpet_B.wav,1,OLD,C,,,1,1,0.46717,0,79,79,79,1,,
,,,,,,,,,,,,,2,5f9e19ae97b3c23c6eaafc96,001,2021-03-03_00h23.52.424,GuessTheSound,2020.2.10,Win32,60,,,,,,,,,,,,,,,Test/Foils/Wind_B.wav,3,NEW,C,,,1,0,5.719365,0,80,80,80,1,,
,,,,,,,,,,,,,2,5f9e19ae97b3c23c6eaafc96,001,2021-03-03_00h23.52.424,GuessTheSound,2020.2.10,Win32,60,,,,,,,,,,,,,,,Initial/Doubled/Cat_A.wav,3,NEW,C,,,3,1,0.430015,0,81,81,81,1,,
,,,,,,,,,,,,,2,5f9e19ae97b3c23c6eaafc96,001,2021-03-03_00h23.52.424,GuessTheSound,2020.2.10,Win32,60,,,,,,,,,,,,,,,Phone_E.wav,2,SIMILAR,C,,,1,0,0.3252,0,82,82,82,1,,
,,,,,,,,,,,,,2,5f9e19ae97b3c23c6eaafc96,001,2021-03-03_00h23.52.424,GuessTheSound,2020.2.10,Win32,60,,,,,,,,,,,,,,,Chomp_F.wav,3,NEW,C,,,3,1,0.374,0,83,83,83,1,,
,,,,,,,,,,,,,2,5f9e19ae97b3c23c6eaafc96,001,2021-03-03_00h23.52.424,GuessTheSound,2020.2.10,Win32,60,,,,,,,,,,,,,,,Elephant_D.wav,2,SIMILAR,C,,,1,0,0.35229,0,84,84,84,1,,
,,,,,,,,,,,,,2,5f9e19ae97b3c23c6eaafc96,001,2021-03-03_00h23.52.424,GuessTheSound,2020.2.10,Win32,60,,,,,,,,,,,,,,,Initial/Repeat/Cup.wav,3,NEW,C,,,1,0,2.56665,0,85,85,85,1,,
,,,,,,,,,,,,,2,5f9e19ae97b3c23c6eaafc96,001,2021-03-03_00h23.52.424,GuessTheSound,2020.2.10,Win32,60,,,,,,,,,,,,,,,Chime_A.wav,2,SIMILAR,C,,,2,1,0.40148,0,86,86,86,1,,
,,,,,,,,,,,,,2,5f9e19ae97b3c23c6eaafc96,001,2021-03-03_00h23.52.424,GuessTheSound,2020.2.10,Win32,60,,,,,,,,,,,,,,,Initial/NoRepeat/Droplet_B.wav,3,NEW,C,,,3,1,0.325985,0,87,87,87,1,,
,,,,,,,,,,,,,2,5f9e19ae97b3c23c6eaafc96,001,2021-03-03_00h23.52.424,GuessTheSound,2020.2.10,Win32,60,,,,,,,,,,,,,,,Faucet_C.wav,2,SIMILAR,C,,,1,0,0.299645,0,88,88,88,1,,
,,,,,,,,,,,,,1,5f9e19ae97b3c23c6eaafc96,001,2021-03-03_00h23.52.424,GuessTheSound,2020.2.10,Win32,60,,,,,,,,,,,,,,,Initial/NoRepeat/Puff_A.wav,1,OLD,C,,,1,1,0.136495,0,89,89,89,1,,
,,,,,,,,,,,,,2,5f9e19ae97b3c23c6eaafc96,001,2021-03-03_00h23.52.424,GuessTheSound,2020.2.10,Win32,60,,,,,,,,,,,,,,,Clap_B.wav,3,NEW,C,,,3,1,0.28391,0,90,90,90,1,,
,,,,,,,,,,,,,1,5f9e19ae97b3c23c6eaafc96,001,2021-03-03_00h23.52.424,GuessTheSound,2020.2.10,Win32,60,,,,,,,,,,,,,,,Initial/Repeat/Cello.wav,1,OLD,C,,,1,1,0.310385,0,91,91,91,1,,
,,,,,,,,,,,,,2,5f9e19ae97b3c23c6eaafc96,001,2021-03-03_00h23.52.424,GuessTheSound,2020.2.10,Win32,60,,,,,,,,,,,,,,,Initial/NoRepeat/Mosquito_B.wav,3,NEW,C,,,3,1,0.369165,0,92,92,92,1,,
,,,,,,,,,,,,,2,5f9e19ae97b3c23c6eaafc96,001,2021-03-03_00h23.52.424,GuessTheSound,2020.2.10,Win32,60,,,,,,,,,,,,,,,Writing_C.wav,2,SIMILAR,C,,,2,1,0.64208,0,93,93,93,1,,
,,,,,,,,,,,,,2,5f9e19ae97b3c23c6eaafc96,001,2021-03-03_00h23.52.424,GuessTheSound,2020.2.10,Win32,60,,,,,,,,,,,,,,,Test/Lures/Guitar_B.wav,3,NEW,C,,,3,1,0.35104,0,94,94,94,1,,
,,,,,,,,,,,,,1,5f9e19ae97b3c23c6eaafc96,001,2021-03-03_00h23.52.424,GuessTheSound,2020.2.10,Win32,60,,,,,,,,,,,,,,,Initial/NoRepeat/Toilet_B.wav,1,OLD,C,,,2,0,0.113135,0,95,95,95,1,,
,,,,,,,,,,,,,2,5f9e19ae97b3c23c6eaafc96,001,2021-03-03_00h23.52.424,GuessTheSound,2020.2.10,Win32,60,,,,,,,,,,,,,,,Initial/Repeat/Bagpipe.wav,3,NEW,C,,,3,1,0.369755,0,96,96,96,1,,
,,,,,,,,,,,,,1,5f9e19ae97b3c23c6eaafc96,001,2021-03-03_00h23.52.424,GuessTheSound,2020.2.10,Win32,60,,,,,,,,,,,,,,,Initial/Doubled/Cuckoo_A.wav,1,OLD,C,,,1,1,0.30164,0,97,97,97,1,,
,,,,,,,,,,,,,1,5f9e19ae97b3c23c6eaafc96,001,2021-03-03_00h23.52.424,GuessTheSound,2020.2.10,Win32,60,,,,,,,,,,,,,,,Test/Foils/Wind_B.wav,1,OLD,C,,,1,1,0.495975,0,98,98,98,1,,
,,,,,,,,,,,,,2,5f9e19ae97b3c23c6eaafc96,001,2021-03-03_00h23.52.424,GuessTheSound,2020.2.10,Win32,60,,,,,,,,,,,,,,,Cough_G.wav,3,NEW,C,,,3,1,1.444665,0,99,99,99,1,,
,,,,,,,,,,,,,2,5f9e19ae97b3c23c6eaafc96,001,2021-03-03_00h23.52.424,GuessTheSound,2020.2.10,Win32,60,,,,,,,,,,,,,,,Initial/Repeat/ManWhistle.wav,3,NEW,C,,,3,1,0.36121,0,100,100,100,1,,
,,,,,,,,,,,,,2,5f9e19ae97b3c23c6eaafc96,001,2021-03-03_00h23.52.424,GuessTheSound,2020.2.10,Win32,60,,,,,,,,,,,,,,,Chomp_E.wav,2,SIMILAR,C,,,1,0,0.423285,0,101,101,101,1,,
,,,,,,,,,,,,,2,5f9e19ae97b3c23c6eaafc96,001,2021-03-03_00h23.52.424,GuessTheSound,2020.2.10,Win32,60,,,,,,,,,,,,,,,Siren_B.wav,2,SIMILAR,C,,,2,1,1.867005,0,102,102,102,1,,
,,,,,,,,,,,,,2,5f9e19ae97b3c23c6eaafc96,001,2021-03-03_00h23.52.424,GuessTheSound,2020.2.10,Win32,60,,,,,,,,,,,,,,,Initial/NoRepeat/Thunder_A.wav,3,NEW,C,,,3,1,2.223115,0,103,103,103,1,,
,,,,,,,,,,,,,1,5f9e19ae97b3c23c6eaafc96,001,2021-03-03_00h23.52.424,GuessTheSound,2020.2.10,Win32,60,,,,,,,,,,,,,,,Initial/Doubled/Cat_A.wav,1,OLD,C,,,1,1,2.56738,0,104,104,104,1,,
,,,,,,,,,,,,,2,5f9e19ae97b3c23c6eaafc96,001,2021-03-03_00h23.52.424,GuessTheSound,2020.2.10,Win32,60,,,,,,,,,,,,,,,Snore_D.wav,3,NEW,C,,,3,1,0.33377,0,105,105,105,1,,
,,,,,,,,,,,,,1,5f9e19ae97b3c23c6eaafc96,001,2021-03-03_00h23.52.424,GuessTheSound,2020.2.10,Win32,60,,,,,,,,,,,,,,,Initial/Repeat/Cup.wav,1,OLD,C,,,1,1,0.29778,0,106,106,106,1,,
,,,,,,,,,,,,,2,5f9e19ae97b3c23c6eaafc96,001,2021-03-03_00h23.52.424,GuessTheSound,2020.2.10,Win32,60,,,,,,,,,,,,,,,Baby_F.wav,3,NEW,C,,,3,1,0.36117,0,107,107,107,1,,
,,,,,,,,,,,,,1,5f9e19ae97b3c23c6eaafc96,001,2021-03-03_00h23.52.424,GuessTheSound,2020.2.10,Win32,60,,,,,,,,,,,,,,,Initial/NoRepeat/Droplet_B.wav,1,OLD,C,,,2,0,0.656665,0,108,108,108,1,,
,,,,,,,,,,,,,2,5f9e19ae97b3c23c6eaafc96,001,2021-03-03_00h23.52.424,GuessTheSound,2020.2.10,Win32,60,,,,,,,,,,,,,,,Test/Foils/DialTone.wav,3,NEW,C,,,3,1,0.377255,0,109,109,109,1,,
,,,,,,,,,,,,,2,5f9e19ae97b3c23c6eaafc96,001,2021-03-03_00h23.52.424,GuessTheSound,2020.2.10,Win32,60,,,,,,,,,,,,,,,Clap_C.wav,2,SIMILAR,C,,,2,1,0.37348,0,110,110,110,1,,
,,,,,,,,,,,,,2,5f9e19ae97b3c23c6eaafc96,001,2021-03-03_00h23.52.424,GuessTheSound,2020.2.10,Win32,60,,,,,,,,,,,,,,,Test/Foils/Heartbeat.wav,3,NEW,C,,,3,1,0.424285,0,111,111,111,1,,
,,,,,,,,,,,,,1,5f9e19ae97b3c23c6eaafc96,001,2021-03-03_00h23.52.424,GuessTheSound,2020.2.10,Win32,60,,,,,,,,,,,,,,,Test/Lures/Guitar_B.wav,1,OLD,C,,,1,1,0.35822,0,112,112,112,1,,
,,,,,,,,,,,,,2,5f9e19ae97b3c23c6eaafc96,001,2021-03-03_00h23.52.424,GuessTheSound,2020.2.10,Win32,60,,,,,,,,,,,,,,,Test/Foils/Typing.wav,3,NEW,C,,,2,0,0.31122,0,113,113,113,1,,
,,,,,,,,,,,,,1,5f9e19ae97b3c23c6eaafc96,001,2021-03-03_00h23.52.424,GuessTheSound,2020.2.10,Win32,60,,,,,,,,,,,,,,,Initial/NoRepeat/Mosquito_B.wav,1,OLD,C,,,2,0,0.4095,0,114,114,114,1,,
,,,,,,,,,,,,,2,5f9e19ae97b3c23c6eaafc96,001,2021-03-03_00h23.52.424,GuessTheSound,2020.2.10,Win32,60,,,,,,,,,,,,,,,Initial/Repeat/Airplane_B.wav,3,NEW,C,,,3,1,0.362095,0,115,115,115,1,,
,,,,,,,,,,,,,1,5f9e19ae97b3c23c6eaafc96,001,2021-03-03_00h23.52.424,GuessTheSound,2020.2.10,Win32,60,,,,,,,,,,,,,,,Initial/Repeat/ManWhistle.wav,1,OLD,C,,,1,1,0.37501,0,116,116,116,1,,
,,,,,,,,,,,,,2,5f9e19ae97b3c23c6eaafc96,001,2021-03-03_00h23.52.424,GuessTheSound,2020.2.10,Win32,60,,,,,,,,,,,,,,,Test/Foils/Steam.wav,3,NEW,C,,,2,0,1.015955,0,117,117,117,1,,
,,,,,,,,,,,,,2,5f9e19ae97b3c23c6eaafc96,001,2021-03-03_00h23.52.424,GuessTheSound,2020.2.10,Win32,60,,,,,,,,,,,,,,,Baby_E.wav,2,SIMILAR,C,,,2,1,0.47049,0,118,118,118,1,,
,,,,,,,,,,,,,1,5f9e19ae97b3c23c6eaafc96,001,2021-03-03_00h23.52.424,GuessTheSound,2020.2.10,Win32,60,,,,,,,,,,,,,,,Initial/Repeat/Bagpipe.wav,1,OLD,C,,,1,1,0.216065,0,119,119,119,1,,
,,,,,,,,,,,,,2,5f9e19ae97b3c23c6eaafc96,001,2021-03-03_00h23.52.424,GuessTheSound,2020.2.10,Win32,60,,,,,,,,,,,,,,,Cough_H.wav,2,SIMILAR,C,,,1,0,0.579645,0,120,120,120,1,,
,,,,,,,,,,,,,1,5f9e19ae97b3c23c6eaafc96,001,2021-03-03_00h23.52.424,GuessTheSound,2020.2.10,Win32,60,,,,,,,,,,,,,,,Initial/Repeat/Airplane_B.wav,1,OLD,C,,,1,1,0.42003,0,121,121,121,1,,
,,,,,,,,,,,,,1,5f9e19ae97b3c23c6eaafc96,001,2021-03-03_00h23.52.424,GuessTheSound,2020.2.10,Win32,60,,,,,,,,,,,,,,,Test/Foils/DialTone.wav,1,OLD,C,,,1,1,0.33689,0,122,122,122,1,,
,,,,,,,,,,,,,1,5f9e19ae97b3c23c6eaafc96,001,2021-03-03_00h23.52.424,GuessTheSound,2020.2.10,Win32,60,,,,,,,,,,,,,,,Initial/NoRepeat/Thunder_A.wav,1,OLD,C,,,1,1,0.35774,0,123,123,123,1,,
,,,,,,,,,,,,,1,5f9e19ae97b3c23c6eaafc96,001,2021-03-03_00h23.52.424,GuessTheSound,2020.2.10,Win32,60,,,,,,,,,,,,,,,Test/Foils/Typing.wav,1,OLD,C,,,2,0,1.985775,0,124,124,124,1,,
,,,,,,,,,,,,,2,5f9e19ae97b3c23c6eaafc96,001,2021-03-03_00h23.52.424,GuessTheSound,2020.2.10,Win32,60,,,,,,,,,,,,,,,Snore_E.wav,2,SIMILAR,C,,,1,0,0.347235,0,125,125,125,1,,
,,,,,,,,,,,,,1,5f9e19ae97b3c23c6eaafc96,001,2021-03-03_00h23.52.424,GuessTheSound,2020.2.10,Win32,60,,,,,,,,,,,,,,,Test/Foils/Heartbeat.wav,1,OLD,C,,,1,1,0.31649,0,126,126,126,1,,
,,,,,,,,,,,,,1,5f9e19ae97b3c23c6eaafc96,001,2021-03-03_00h23.52.424,GuessTheSound,2020.2.10,Win32,60,,,,,,,,,,,,,,,Test/Foils/Steam.wav,1,OLD,C,,,2,0,1.51634,0,127,127,127,1,,
,,,,,,,,,,,,,,5f9e19ae97b3c23c6eaafc96,001,2021-03-03_00h23.52.424,GuessTheSound,2020.2.10,Win32,60,,,,,,,,,,,,,,,,,,,,,,,,,,,,,space,41.371235
