VolumeContinueKey.keys,VolumeContinueKey.rt,HeadphoneContinueKey.keys,HeadphoneContinueKey.rt,CheckResp.keys,CheckResp.corr,CheckResp.rt,trials_2.thisRepN,trials_2.thisTrialN,trials_2.thisN,trials_2.thisIndex,trials_2.ran,File,Correct,participant,session,date,expName,psychopyVersion,OS,frameRate,key_resp_2.keys,key_resp_2.rt,key_resp_3.keys,key_resp_3.rt,WelcomeContinueKey2.keys,WelcomeContinueKey2.rt,Practice_resp.keys,Practice_resp.corr,Practice_resp.rt,PracticeTrials.thisRepN,PracticeTrials.thisTrialN,PracticeTrials.thisN,PracticeTrials.thisIndex,PracticeTrials.ran,SoundFile5,Correct2,Type,StartTast.keys,StartTast.rt,key_resp.keys,key_resp.corr,key_resp.rt,trials.thisRepN,trials.thisTrialN,trials.thisN,trials.thisIndex,trials.ran,ExitKey.keys,ExitKey.rt
space,3.005925,space,4.829325,2,1,3.42131,0,0,0,3,1,Headphone/t2_2.wav,2,5f2b280ea50bc45370328ee3,001,2021-02-18_17h04.07.953,GuessTheSound,2020.2.10,Linux x86_64,60,,,,,,,,,,,,,,,,,,,,,,,,,,,,,
,,,,1,1,0.57908,0,1,1,1,1,Headphone/t1_2.wav,1,5f2b280ea50bc45370328ee3,001,2021-02-18_17h04.07.953,GuessTheSound,2020.2.10,Linux x86_64,60,,,,,,,,,,,,,,,,,,,,,,,,,,,,,
,,,,1,1,0.072715,0,2,2,0,1,Headphone/t1_1.wav,1,5f2b280ea50bc45370328ee3,001,2021-02-18_17h04.07.953,GuessTheSound,2020.2.10,Linux x86_64,60,,,,,,,,,,,,,,,,,,,,,,,,,,,,,
,,,,2,1,0.30074,0,3,3,2,1,Headphone/t2_1.wav,2,5f2b280ea50bc45370328ee3,001,2021-02-18_17h04.07.953,GuessTheSound,2020.2.10,Linux x86_64,60,,,,,,,,,,,,,,,,,,,,,,,,,,,,,
,,,,3,1,0.07229,0,4,4,5,1,Headphone/t3_2.wav,3,5f2b280ea50bc45370328ee3,001,2021-02-18_17h04.07.953,GuessTheSound,2020.2.10,Linux x86_64,60,,,,,,,,,,,,,,,,,,,,,,,,,,,,,
,,,,3,1,0.25861,0,5,5,4,1,Headphone/t3_1.wav,3,5f2b280ea50bc45370328ee3,001,2021-02-18_17h04.07.953,GuessTheSound,2020.2.10,Linux x86_64,60,,,,,,,,,,,,,,,,,,,,,,,,,,,,,
,,,,,,,,,,,,,2,5f2b280ea50bc45370328ee3,001,2021-02-18_17h04.07.953,GuessTheSound,2020.2.10,Linux x86_64,60,space,16.68553,space,6.35328,space,3.279235,2,1,5.17448,0,0,0,0,1,Practice/Seagull_A.wav,3,NEW,,,,,,,,,,,,
,,,,,,,,,,,,,2,5f2b280ea50bc45370328ee3,001,2021-02-18_17h04.07.953,GuessTheSound,2020.2.10,Linux x86_64,60,,,,,,,2,1,0.65395,0,1,1,1,1,Practice/Skid_B.wav,3,NEW,,,,,,,,,,,,
,,,,,,,,,,,,,1,5f2b280ea50bc45370328ee3,001,2021-02-18_17h04.07.953,GuessTheSound,2020.2.10,Linux x86_64,60,,,,,,,1,1,0.35319,0,2,2,2,1,Practice/Seagull_A.wav,1,OLD,,,,,,,,,,,,
,,,,,,,,,,,,,2,5f2b280ea50bc45370328ee3,001,2021-02-18_17h04.07.953,GuessTheSound,2020.2.10,Linux x86_64,60,,,,,,,2,1,0.56509,0,3,3,3,1,Practice/Gargle_A.wav,3,NEW,,,,,,,,,,,,
,,,,,,,,,,,,,2,5f2b280ea50bc45370328ee3,001,2021-02-18_17h04.07.953,GuessTheSound,2020.2.10,Linux x86_64,60,,,,,,,2,1,1.758895,0,4,4,4,1,Practice/Gargle_B.wav,2,SIMILAR,,,,,,,,,,,,
,,,,,,,,,,,,,2,5f2b280ea50bc45370328ee3,001,2021-02-18_17h04.07.953,GuessTheSound,2020.2.10,Linux x86_64,60,,,,,,,,,,,,,,,Initial/NoRepeat/Elephant_A.wav,3,NEW,space,3.856615,2,1,1.23049,0,0,0,0,1,,
,,,,,,,,,,,,,2,5f2b280ea50bc45370328ee3,001,2021-02-18_17h04.07.953,GuessTheSound,2020.2.10,Linux x86_64,60,,,,,,,,,,,,,,,Initial/NoRepeat/Thunder_A.wav,3,NEW,,,2,1,1.327705,0,1,1,1,1,,
,,,,,,,,,,,,,2,5f2b280ea50bc45370328ee3,001,2021-02-18_17h04.07.953,GuessTheSound,2020.2.10,Linux x86_64,60,,,,,,,,,,,,,,,Test/Lures/Chime_B.wav,3,NEW,,,2,1,0.466975,0,2,2,2,1,,
,,,,,,,,,,,,,2,5f2b280ea50bc45370328ee3,001,2021-02-18_17h04.07.953,GuessTheSound,2020.2.10,Linux x86_64,60,,,,,,,,,,,,,,,Initial/NoRepeat/Toilet_B.wav,3,NEW,,,2,1,0.30733,0,3,3,3,1,,
,,,,,,,,,,,,,2,5f2b280ea50bc45370328ee3,001,2021-02-18_17h04.07.953,GuessTheSound,2020.2.10,Linux x86_64,60,,,,,,,,,,,,,,,Test/Foils/Typing.wav,3,NEW,,,2,1,0.320205,0,4,4,4,1,,
,,,,,,,,,,,,,2,5f2b280ea50bc45370328ee3,001,2021-02-18_17h04.07.953,GuessTheSound,2020.2.10,Linux x86_64,60,,,,,,,,,,,,,,,Initial/Repeat/Pour.wav,3,NEW,,,2,1,0.300375,0,5,5,5,1,,
,,,,,,,,,,,,,2,5f2b280ea50bc45370328ee3,001,2021-02-18_17h04.07.953,GuessTheSound,2020.2.10,Linux x86_64,60,,,,,,,,,,,,,,,Initial/NoRepeat/Sleighbells_B.wav,3,NEW,,,2,1,0.42487,0,6,6,6,1,,
,,,,,,,,,,,,,1,5f2b280ea50bc45370328ee3,001,2021-02-18_17h04.07.953,GuessTheSound,2020.2.10,Linux x86_64,60,,,,,,,,,,,,,,,Initial/NoRepeat/Thunder_A.wav,1,OLD,,,2,0,0.30626,0,7,7,7,1,,
,,,,,,,,,,,,,2,5f2b280ea50bc45370328ee3,001,2021-02-18_17h04.07.953,GuessTheSound,2020.2.10,Linux x86_64,60,,,,,,,,,,,,,,,Initial/Repeat/Buzz.wav,3,NEW,,,2,1,0.335065,0,8,8,8,1,,
,,,,,,,,,,,,,2,5f2b280ea50bc45370328ee3,001,2021-02-18_17h04.07.953,GuessTheSound,2020.2.10,Linux x86_64,60,,,,,,,,,,,,,,,Initial/NoRepeat/Baby_B.wav,3,NEW,,,2,1,0.32897,0,9,9,9,1,,
,,,,,,,,,,,,,2,5f2b280ea50bc45370328ee3,001,2021-02-18_17h04.07.953,GuessTheSound,2020.2.10,Linux x86_64,60,,,,,,,,,,,,,,,Initial/NoRepeat/Mosquito_B.wav,3,NEW,,,2,1,0.29327,0,10,10,10,1,,
,,,,,,,,,,,,,1,5f2b280ea50bc45370328ee3,001,2021-02-18_17h04.07.953,GuessTheSound,2020.2.10,Linux x86_64,60,,,,,,,,,,,,,,,Test/Foils/Typing.wav,1,OLD,,,2,0,0.366455,0,11,11,11,1,,
,,,,,,,,,,,,,2,5f2b280ea50bc45370328ee3,001,2021-02-18_17h04.07.953,GuessTheSound,2020.2.10,Linux x86_64,60,,,,,,,,,,,,,,,Initial/Doubled/Chime_A.wav,2,SIMILAR,,,1,0,0.434275,0,12,12,12,1,,
,,,,,,,,,,,,,2,5f2b280ea50bc45370328ee3,001,2021-02-18_17h04.07.953,GuessTheSound,2020.2.10,Linux x86_64,60,,,,,,,,,,,,,,,Test/Foils/DialTone.wav,3,NEW,,,2,1,0.30391,0,13,13,13,1,,
,,,,,,,,,,,,,1,5f2b280ea50bc45370328ee3,001,2021-02-18_17h04.07.953,GuessTheSound,2020.2.10,Linux x86_64,60,,,,,,,,,,,,,,,Initial/NoRepeat/Elephant_A.wav,1,OLD,,,1,1,0.367965,0,14,14,14,1,,
,,,,,,,,,,,,,2,5f2b280ea50bc45370328ee3,001,2021-02-18_17h04.07.953,GuessTheSound,2020.2.10,Linux x86_64,60,,,,,,,,,,,,,,,Initial/Doubled/Writing_A.wav,3,NEW,,,2,1,0.318005,0,15,15,15,1,,
,,,,,,,,,,,,,2,5f2b280ea50bc45370328ee3,001,2021-02-18_17h04.07.953,GuessTheSound,2020.2.10,Linux x86_64,60,,,,,,,,,,,,,,,Initial/NoRepeat/Faucet_A.wav,3,NEW,,,2,1,0.791005,0,16,16,16,1,,
,,,,,,,,,,,,,1,5f2b280ea50bc45370328ee3,001,2021-02-18_17h04.07.953,GuessTheSound,2020.2.10,Linux x86_64,60,,,,,,,,,,,,,,,Initial/NoRepeat/Toilet_B.wav,1,OLD,,,1,1,0.39739,0,17,17,17,1,,
,,,,,,,,,,,,,1,5f2b280ea50bc45370328ee3,001,2021-02-18_17h04.07.953,GuessTheSound,2020.2.10,Linux x86_64,60,,,,,,,,,,,,,,,Initial/NoRepeat/Sleighbells_B.wav,1,OLD,,,1,1,0.3205,0,18,18,18,1,,
,,,,,,,,,,,,,2,5f2b280ea50bc45370328ee3,001,2021-02-18_17h04.07.953,GuessTheSound,2020.2.10,Linux x86_64,60,,,,,,,,,,,,,,,Test/Foils/Wind_B.wav,3,NEW,,,1,0,0.610985,0,19,19,19,1,,
,,,,,,,,,,,,,2,5f2b280ea50bc45370328ee3,001,2021-02-18_17h04.07.953,GuessTheSound,2020.2.10,Linux x86_64,60,,,,,,,,,,,,,,,Pour_C.wav,2,SIMILAR,,,1,0,0.35845,0,20,20,20,1,,
,,,,,,,,,,,,,1,5f2b280ea50bc45370328ee3,001,2021-02-18_17h04.07.953,GuessTheSound,2020.2.10,Linux x86_64,60,,,,,,,,,,,,,,,Initial/Repeat/Buzz.wav,1,OLD,,,1,1,0.3559,0,21,21,21,1,,
,,,,,,,,,,,,,2,5f2b280ea50bc45370328ee3,001,2021-02-18_17h04.07.953,GuessTheSound,2020.2.10,Linux x86_64,60,,,,,,,,,,,,,,,Baby_A.wav,2,SIMILAR,,,2,1,0.823535,0,22,22,22,1,,
,,,,,,,,,,,,,2,5f2b280ea50bc45370328ee3,001,2021-02-18_17h04.07.953,GuessTheSound,2020.2.10,Linux x86_64,60,,,,,,,,,,,,,,,Writing_C.wav,2,SIMILAR,,,2,1,0.854775,0,23,23,23,1,,
,,,,,,,,,,,,,1,5f2b280ea50bc45370328ee3,001,2021-02-18_17h04.07.953,GuessTheSound,2020.2.10,Linux x86_64,60,,,,,,,,,,,,,,,Initial/NoRepeat/Mosquito_B.wav,1,OLD,,,1,1,0.46409,0,24,24,24,1,,
,,,,,,,,,,,,,2,5f2b280ea50bc45370328ee3,001,2021-02-18_17h04.07.953,GuessTheSound,2020.2.10,Linux x86_64,60,,,,,,,,,,,,,,,Initial/Doubled/Cough_A.wav,3,NEW,,,2,1,0.321675,0,25,25,25,1,,
,,,,,,,,,,,,,1,5f2b280ea50bc45370328ee3,001,2021-02-18_17h04.07.953,GuessTheSound,2020.2.10,Linux x86_64,60,,,,,,,,,,,,,,,Test/Foils/DialTone.wav,1,OLD,,,2,0,0.30437,0,26,26,26,1,,
,,,,,,,,,,,,,2,5f2b280ea50bc45370328ee3,001,2021-02-18_17h04.07.953,GuessTheSound,2020.2.10,Linux x86_64,60,,,,,,,,,,,,,,,Test/Foils/Heartbeat.wav,3,NEW,,,2,1,0.29322,0,27,27,27,1,,
,,,,,,,,,,,,,2,5f2b280ea50bc45370328ee3,001,2021-02-18_17h04.07.953,GuessTheSound,2020.2.10,Linux x86_64,60,,,,,,,,,,,,,,,Initial/Repeat/IceDrop.wav,3,NEW,,,2,1,0.38676,0,28,28,28,1,,
,,,,,,,,,,,,,2,5f2b280ea50bc45370328ee3,001,2021-02-18_17h04.07.953,GuessTheSound,2020.2.10,Linux x86_64,60,,,,,,,,,,,,,,,Bird_C.wav,3,NEW,,,2,1,0.437095,0,29,29,29,1,,
,,,,,,,,,,,,,2,5f2b280ea50bc45370328ee3,001,2021-02-18_17h04.07.953,GuessTheSound,2020.2.10,Linux x86_64,60,,,,,,,,,,,,,,,Initial/NoRepeat/Puff_A.wav,3,NEW,,,2,1,0.32302,0,30,30,30,1,,
,,,,,,,,,,,,,2,5f2b280ea50bc45370328ee3,001,2021-02-18_17h04.07.953,GuessTheSound,2020.2.10,Linux x86_64,60,,,,,,,,,,,,,,,Faucet_B.wav,2,SIMILAR,,,2,1,0.019785,0,31,31,31,1,,
,,,,,,,,,,,,,2,5f2b280ea50bc45370328ee3,001,2021-02-18_17h04.07.953,GuessTheSound,2020.2.10,Linux x86_64,60,,,,,,,,,,,,,,,Initial/NoRepeat/Duck_A.wav,3,NEW,,,2,1,0.27206,0,32,32,32,1,,
,,,,,,,,,,,,,2,5f2b280ea50bc45370328ee3,001,2021-02-18_17h04.07.953,GuessTheSound,2020.2.10,Linux x86_64,60,,,,,,,,,,,,,,,Initial/Doubled/Laugh_A.wav,3,NEW,,,2,1,0.239825,0,33,33,33,1,,
,,,,,,,,,,,,,1,5f2b280ea50bc45370328ee3,001,2021-02-18_17h04.07.953,GuessTheSound,2020.2.10,Linux x86_64,60,,,,,,,,,,,,,,,Test/Foils/Wind_B.wav,1,OLD,,,2,0,0.055855,0,34,34,34,1,,
,,,,,,,,,,,,,2,5f2b280ea50bc45370328ee3,001,2021-02-18_17h04.07.953,GuessTheSound,2020.2.10,Linux x86_64,60,,,,,,,,,,,,,,,Initial/Doubled/Chicken_A.wav,3,NEW,,,2,1,0.311495,0,35,35,35,1,,
,,,,,,,,,,,,,2,5f2b280ea50bc45370328ee3,001,2021-02-18_17h04.07.953,GuessTheSound,2020.2.10,Linux x86_64,60,,,,,,,,,,,,,,,Test/Lures/Guitar_B.wav,3,NEW,,,2,1,0.15246,0,36,36,36,1,,
,,,,,,,,,,,,,2,5f2b280ea50bc45370328ee3,001,2021-02-18_17h04.07.953,GuessTheSound,2020.2.10,Linux x86_64,60,,,,,,,,,,,,,,,Initial/Repeat/Cello.wav,3,NEW,,,2,1,0.38739,0,37,37,37,1,,
,,,,,,,,,,,,,1,5f2b280ea50bc45370328ee3,001,2021-02-18_17h04.07.953,GuessTheSound,2020.2.10,Linux x86_64,60,,,,,,,,,,,,,,,Test/Foils/Heartbeat.wav,1,OLD,,,1,1,0.50392,0,38,38,38,1,,
,,,,,,,,,,,,,2,5f2b280ea50bc45370328ee3,001,2021-02-18_17h04.07.953,GuessTheSound,2020.2.10,Linux x86_64,60,,,,,,,,,,,,,,,Initial/Repeat/Airplane_B.wav,3,NEW,,,2,1,0.502535,0,39,39,39,1,,
,,,,,,,,,,,,,2,5f2b280ea50bc45370328ee3,001,2021-02-18_17h04.07.953,GuessTheSound,2020.2.10,Linux x86_64,60,,,,,,,,,,,,,,,Cough_D.wav,2,SIMILAR,,,1,0,0.40331,0,40,40,40,1,,
,,,,,,,,,,,,,2,5f2b280ea50bc45370328ee3,001,2021-02-18_17h04.07.953,GuessTheSound,2020.2.10,Linux x86_64,60,,,,,,,,,,,,,,,Bird_D.wav,2,SIMILAR,,,1,0,0.5076,0,41,41,41,1,,
,,,,,,,,,,,,,2,5f2b280ea50bc45370328ee3,001,2021-02-18_17h04.07.953,GuessTheSound,2020.2.10,Linux x86_64,60,,,,,,,,,,,,,,,Initial/Repeat/Trumpet_B.wav,3,NEW,,,2,1,0.28489,0,42,42,42,1,,
,,,,,,,,,,,,,1,5f2b280ea50bc45370328ee3,001,2021-02-18_17h04.07.953,GuessTheSound,2020.2.10,Linux x86_64,60,,,,,,,,,,,,,,,Initial/Repeat/IceDrop.wav,1,OLD,,,1,1,0.40123,0,43,43,43,1,,
,,,,,,,,,,,,,2,5f2b280ea50bc45370328ee3,001,2021-02-18_17h04.07.953,GuessTheSound,2020.2.10,Linux x86_64,60,,,,,,,,,,,,,,,Initial/Repeat/Sneeze_B.wav,3,NEW,,,2,1,0.60453,0,44,44,44,1,,
,,,,,,,,,,,,,1,5f2b280ea50bc45370328ee3,001,2021-02-18_17h04.07.953,GuessTheSound,2020.2.10,Linux x86_64,60,,,,,,,,,,,,,,,Initial/NoRepeat/Puff_A.wav,1,OLD,,,1,1,0.28737,0,45,45,45,1,,
,,,,,,,,,,,,,2,5f2b280ea50bc45370328ee3,001,2021-02-18_17h04.07.953,GuessTheSound,2020.2.10,Linux x86_64,60,,,,,,,,,,,,,,,Initial/NoRepeat/Snore_B.wav,3,NEW,,,2,1,0.06933,0,46,46,46,1,,
,,,,,,,,,,,,,1,5f2b280ea50bc45370328ee3,001,2021-02-18_17h04.07.953,GuessTheSound,2020.2.10,Linux x86_64,60,,,,,,,,,,,,,,,Test/Lures/Guitar_B.wav,1,OLD,,,1,1,0.366505,0,47,47,47,1,,
,,,,,,,,,,,,,2,5f2b280ea50bc45370328ee3,001,2021-02-18_17h04.07.953,GuessTheSound,2020.2.10,Linux x86_64,60,,,,,,,,,,,,,,,Initial/Doubled/Cat_A.wav,3,NEW,,,2,1,0.50359,0,48,48,48,1,,
,,,,,,,,,,,,,2,5f2b280ea50bc45370328ee3,001,2021-02-18_17h04.07.953,GuessTheSound,2020.2.10,Linux x86_64,60,,,,,,,,,,,,,,,Initial/Repeat/Whistle_A.wav,3,NEW,,,2,1,0.338055,0,49,49,49,1,,
,,,,,,,,,,,,,2,5f2b280ea50bc45370328ee3,001,2021-02-18_17h04.07.953,GuessTheSound,2020.2.10,Linux x86_64,60,,,,,,,,,,,,,,,Duck_B.wav,2,SIMILAR,,,2,1,0.45198,0,50,50,50,1,,
,,,,,,,,,,,,,2,5f2b280ea50bc45370328ee3,001,2021-02-18_17h04.07.953,GuessTheSound,2020.2.10,Linux x86_64,60,,,,,,,,,,,,,,,Laugh_D.wav,2,SIMILAR,,,2,1,0.661565,0,51,51,51,1,,
,,,,,,,,,,,,,1,5f2b280ea50bc45370328ee3,001,2021-02-18_17h04.07.953,GuessTheSound,2020.2.10,Linux x86_64,60,,,,,,,,,,,,,,,Initial/Doubled/Chicken_A.wav,1,OLD,,,1,1,0.737875,0,52,52,52,1,,
,,,,,,,,,,,,,1,5f2b280ea50bc45370328ee3,001,2021-02-18_17h04.07.953,GuessTheSound,2020.2.10,Linux x86_64,60,,,,,,,,,,,,,,,Initial/Repeat/Cello.wav,1,OLD,,,1,1,1.303675,0,53,53,53,1,,
,,,,,,,,,,,,,2,5f2b280ea50bc45370328ee3,001,2021-02-18_17h04.07.953,GuessTheSound,2020.2.10,Linux x86_64,60,,,,,,,,,,,,,,,Test/Foils/Slurp.wav,3,NEW,,,2,1,1.001155,0,54,54,54,1,,
,,,,,,,,,,,,,2,5f2b280ea50bc45370328ee3,001,2021-02-18_17h04.07.953,GuessTheSound,2020.2.10,Linux x86_64,60,,,,,,,,,,,,,,,Chomp_B.wav,3,NEW,,,2,1,0.30322,0,55,55,55,1,,
,,,,,,,,,,,,,1,5f2b280ea50bc45370328ee3,001,2021-02-18_17h04.07.953,GuessTheSound,2020.2.10,Linux x86_64,60,,,,,,,,,,,,,,,Initial/Repeat/Airplane_B.wav,1,OLD,,,2,0,1.235645,0,56,56,56,1,,
,,,,,,,,,,,,,2,5f2b280ea50bc45370328ee3,001,2021-02-18_17h04.07.953,GuessTheSound,2020.2.10,Linux x86_64,60,,,,,,,,,,,,,,,Initial/Doubled/Bubbles_A.wav,3,NEW,,,2,1,0.202125,0,57,57,57,1,,
,,,,,,,,,,,,,2,5f2b280ea50bc45370328ee3,001,2021-02-18_17h04.07.953,GuessTheSound,2020.2.10,Linux x86_64,60,,,,,,,,,,,,,,,Trumpet_A.wav,2,SIMILAR,,,2,1,0.33657,0,58,58,58,1,,
,,,,,,,,,,,,,2,5f2b280ea50bc45370328ee3,001,2021-02-18_17h04.07.953,GuessTheSound,2020.2.10,Linux x86_64,60,,,,,,,,,,,,,,,Initial/Repeat/Cup.wav,3,NEW,,,2,1,0.302845,0,59,59,59,1,,
,,,,,,,,,,,,,2,5f2b280ea50bc45370328ee3,001,2021-02-18_17h04.07.953,GuessTheSound,2020.2.10,Linux x86_64,60,,,,,,,,,,,,,,,Snore_C.wav,2,SIMILAR,,,1,0,0.42165,0,60,60,60,1,,
,,,,,,,,,,,,,2,5f2b280ea50bc45370328ee3,001,2021-02-18_17h04.07.953,GuessTheSound,2020.2.10,Linux x86_64,60,,,,,,,,,,,,,,,Test/Foils/Airhorn.wav,3,NEW,,,2,1,0.41919,0,61,61,61,1,,
,,,,,,,,,,,,,2,5f2b280ea50bc45370328ee3,001,2021-02-18_17h04.07.953,GuessTheSound,2020.2.10,Linux x86_64,60,,,,,,,,,,,,,,,Whistle_B.wav,2,SIMILAR,,,2,1,0.05136,0,62,62,62,1,,
,,,,,,,,,,,,,1,5f2b280ea50bc45370328ee3,001,2021-02-18_17h04.07.953,GuessTheSound,2020.2.10,Linux x86_64,60,,,,,,,,,,,,,,,Initial/Repeat/Sneeze_B.wav,1,OLD,,,1,1,0.40428,0,63,63,63,1,,
,,,,,,,,,,,,,1,5f2b280ea50bc45370328ee3,001,2021-02-18_17h04.07.953,GuessTheSound,2020.2.10,Linux x86_64,60,,,,,,,,,,,,,,,Initial/Doubled/Cat_A.wav,1,OLD,,,1,1,0.18775,0,64,64,64,1,,
,,,,,,,,,,,,,2,5f2b280ea50bc45370328ee3,001,2021-02-18_17h04.07.953,GuessTheSound,2020.2.10,Linux x86_64,60,,,,,,,,,,,,,,,Phone_D.wav,3,NEW,,,2,1,0.03602,0,65,65,65,1,,
,,,,,,,,,,,,,2,5f2b280ea50bc45370328ee3,001,2021-02-18_17h04.07.953,GuessTheSound,2020.2.10,Linux x86_64,60,,,,,,,,,,,,,,,Initial/Repeat/Bagpipe.wav,3,NEW,,,2,1,0.405955,0,66,66,66,1,,
,,,,,,,,,,,,,2,5f2b280ea50bc45370328ee3,001,2021-02-18_17h04.07.953,GuessTheSound,2020.2.10,Linux x86_64,60,,,,,,,,,,,,,,,Chomp_C.wav,2,SIMILAR,,,1,0,0.32639,0,67,67,67,1,,
,,,,,,,,,,,,,1,5f2b280ea50bc45370328ee3,001,2021-02-18_17h04.07.953,GuessTheSound,2020.2.10,Linux x86_64,60,,,,,,,,,,,,,,,Test/Foils/Slurp.wav,1,OLD,,,2,0,0.622025,0,68,68,68,1,,
,,,,,,,,,,,,,2,5f2b280ea50bc45370328ee3,001,2021-02-18_17h04.07.953,GuessTheSound,2020.2.10,Linux x86_64,60,,,,,,,,,,,,,,,Test/Foils/Bowlingpins.wav,3,NEW,,,2,1,0.01828,0,69,69,69,1,,
,,,,,,,,,,,,,1,5f2b280ea50bc45370328ee3,001,2021-02-18_17h04.07.953,GuessTheSound,2020.2.10,Linux x86_64,60,,,,,,,,,,,,,,,Initial/Doubled/Bubbles_A.wav,1,OLD,,,1,1,0.13029,0,70,70,70,1,,
,,,,,,,,,,,,,2,5f2b280ea50bc45370328ee3,001,2021-02-18_17h04.07.953,GuessTheSound,2020.2.10,Linux x86_64,60,,,,,,,,,,,,,,,Initial/NoRepeat/Cow.wav,3,NEW,,,2,1,0.25207,0,71,71,71,1,,
,,,,,,,,,,,,,2,5f2b280ea50bc45370328ee3,001,2021-02-18_17h04.07.953,GuessTheSound,2020.2.10,Linux x86_64,60,,,,,,,,,,,,,,,Initial/Doubled/Siren_A.wav,3,NEW,,,2,1,0.02286,0,72,72,72,1,,
,,,,,,,,,,,,,2,5f2b280ea50bc45370328ee3,001,2021-02-18_17h04.07.953,GuessTheSound,2020.2.10,Linux x86_64,60,,,,,,,,,,,,,,,Initial/Repeat/Crow_B.wav,3,NEW,,,1,0,0.42839,0,73,73,73,1,,
,,,,,,,,,,,,,1,5f2b280ea50bc45370328ee3,001,2021-02-18_17h04.07.953,GuessTheSound,2020.2.10,Linux x86_64,60,,,,,,,,,,,,,,,Initial/Repeat/Bagpipe.wav,1,OLD,,,1,1,0.935355,0,74,74,74,1,,
,,,,,,,,,,,,,1,5f2b280ea50bc45370328ee3,001,2021-02-18_17h04.07.953,GuessTheSound,2020.2.10,Linux x86_64,60,,,,,,,,,,,,,,,Initial/Repeat/Cup.wav,1,OLD,,,2,0,0.95035,0,75,75,75,1,,
,,,,,,,,,,,,,2,5f2b280ea50bc45370328ee3,001,2021-02-18_17h04.07.953,GuessTheSound,2020.2.10,Linux x86_64,60,,,,,,,,,,,,,,,Test/Foils/Bullfrog.wav,3,NEW,,,2,1,0.118245,0,76,76,76,1,,
,,,,,,,,,,,,,2,5f2b280ea50bc45370328ee3,001,2021-02-18_17h04.07.953,GuessTheSound,2020.2.10,Linux x86_64,60,,,,,,,,,,,,,,,Initial/Repeat/Phone_A.wav,2,SIMILAR,,,1,0,0.35905,0,77,77,77,1,,
,,,,,,,,,,,,,2,5f2b280ea50bc45370328ee3,001,2021-02-18_17h04.07.953,GuessTheSound,2020.2.10,Linux x86_64,60,,,,,,,,,,,,,,,Initial/Doubled/HairDryer_A.wav,3,NEW,,,2,1,0.372835,0,78,78,78,1,,
,,,,,,,,,,,,,1,5f2b280ea50bc45370328ee3,001,2021-02-18_17h04.07.953,GuessTheSound,2020.2.10,Linux x86_64,60,,,,,,,,,,,,,,,Test/Foils/Airhorn.wav,1,OLD,,,1,1,0.50595,0,79,79,79,1,,
,,,,,,,,,,,,,2,5f2b280ea50bc45370328ee3,001,2021-02-18_17h04.07.953,GuessTheSound,2020.2.10,Linux x86_64,60,,,,,,,,,,,,,,,Initial/Doubled/Cuckoo_A.wav,3,NEW,,,2,1,0.233615,0,80,80,80,1,,
,,,,,,,,,,,,,1,5f2b280ea50bc45370328ee3,001,2021-02-18_17h04.07.953,GuessTheSound,2020.2.10,Linux x86_64,60,,,,,,,,,,,,,,,Initial/NoRepeat/Cow.wav,1,OLD,,,1,1,0.254055,0,81,81,81,1,,
,,,,,,,,,,,,,2,5f2b280ea50bc45370328ee3,001,2021-02-18_17h04.07.953,GuessTheSound,2020.2.10,Linux x86_64,60,,,,,,,,,,,,,,,Initial/NoRepeat/Hammer_A.wav,3,NEW,,,2,1,0.669615,0,82,82,82,1,,
,,,,,,,,,,,,,2,5f2b280ea50bc45370328ee3,001,2021-02-18_17h04.07.953,GuessTheSound,2020.2.10,Linux x86_64,60,,,,,,,,,,,,,,,Initial/NoRepeat/Footsteps_B.wav,3,NEW,,,2,1,0.42634,0,83,83,83,1,,
,,,,,,,,,,,,,2,5f2b280ea50bc45370328ee3,001,2021-02-18_17h04.07.953,GuessTheSound,2020.2.10,Linux x86_64,60,,,,,,,,,,,,,,,Initial/Doubled/Dog_A.wav,3,NEW,,,2,1,0.27136,0,84,84,84,1,,
,,,,,,,,,,,,,1,5f2b280ea50bc45370328ee3,001,2021-02-18_17h04.07.953,GuessTheSound,2020.2.10,Linux x86_64,60,,,,,,,,,,,,,,,Test/Foils/Bowlingpins.wav,1,OLD,,,1,1,0.60659,0,85,85,85,1,,
,,,,,,,,,,,,,2,5f2b280ea50bc45370328ee3,001,2021-02-18_17h04.07.953,GuessTheSound,2020.2.10,Linux x86_64,60,,,,,,,,,,,,,,,Initial/Doubled/Clap_A.wav,3,NEW,,,2,1,0.398525,0,86,86,86,1,,
,,,,,,,,,,,,,2,5f2b280ea50bc45370328ee3,001,2021-02-18_17h04.07.953,GuessTheSound,2020.2.10,Linux x86_64,60,,,,,,,,,,,,,,,Initial/NoRepeat/Fireworks.wav,3,NEW,,,2,1,0.23766,0,87,87,87,1,,
,,,,,,,,,,,,,1,5f2b280ea50bc45370328ee3,001,2021-02-18_17h04.07.953,GuessTheSound,2020.2.10,Linux x86_64,60,,,,,,,,,,,,,,,Test/Foils/Bullfrog.wav,1,OLD,,,1,1,1.511895,0,88,88,88,1,,
,,,,,,,,,,,,,2,5f2b280ea50bc45370328ee3,001,2021-02-18_17h04.07.953,GuessTheSound,2020.2.10,Linux x86_64,60,,,,,,,,,,,,,,,Siren_C.wav,2,SIMILAR,,,2,1,0.221185,0,89,89,89,1,,
,,,,,,,,,,,,,2,5f2b280ea50bc45370328ee3,001,2021-02-18_17h04.07.953,GuessTheSound,2020.2.10,Linux x86_64,60,,,,,,,,,,,,,,,Crow_A.wav,2,SIMILAR,,,1,0,3.61748,0,90,90,90,1,,
,,,,,,,,,,,,,2,5f2b280ea50bc45370328ee3,001,2021-02-18_17h04.07.953,GuessTheSound,2020.2.10,Linux x86_64,60,,,,,,,,,,,,,,,Goat_A.wav,3,NEW,,,2,1,0.30614,0,91,91,91,1,,
,,,,,,,,,,,,,1,5f2b280ea50bc45370328ee3,001,2021-02-18_17h04.07.953,GuessTheSound,2020.2.10,Linux x86_64,60,,,,,,,,,,,,,,,Initial/Doubled/HairDryer_A.wav,1,OLD,,,1,1,0.41926,0,92,92,92,1,,
,,,,,,,,,,,,,1,5f2b280ea50bc45370328ee3,001,2021-02-18_17h04.07.953,GuessTheSound,2020.2.10,Linux x86_64,60,,,,,,,,,,,,,,,Initial/Doubled/Cuckoo_A.wav,1,OLD,,,2,0,0.722235,0,93,93,93,1,,
,,,,,,,,,,,,,2,5f2b280ea50bc45370328ee3,001,2021-02-18_17h04.07.953,GuessTheSound,2020.2.10,Linux x86_64,60,,,,,,,,,,,,,,,Initial/Doubled/Coin_A.wav,3,NEW,,,2,1,0.340465,0,94,94,94,1,,
,,,,,,,,,,,,,2,5f2b280ea50bc45370328ee3,001,2021-02-18_17h04.07.953,GuessTheSound,2020.2.10,Linux x86_64,60,,,,,,,,,,,,,,,Initial/Repeat/Howl.wav,3,NEW,,,2,1,0.32199,0,95,95,95,1,,
,,,,,,,,,,,,,1,5f2b280ea50bc45370328ee3,001,2021-02-18_17h04.07.953,GuessTheSound,2020.2.10,Linux x86_64,60,,,,,,,,,,,,,,,Initial/NoRepeat/Hammer_A.wav,1,OLD,,,1,1,1.55483,0,96,96,96,1,,
,,,,,,,,,,,,,2,5f2b280ea50bc45370328ee3,001,2021-02-18_17h04.07.953,GuessTheSound,2020.2.10,Linux x86_64,60,,,,,,,,,,,,,,,Initial/NoRepeat/Helicopter_A.wav,3,NEW,,,2,1,0.27042,0,97,97,97,1,,
,,,,,,,,,,,,,2,5f2b280ea50bc45370328ee3,001,2021-02-18_17h04.07.953,GuessTheSound,2020.2.10,Linux x86_64,60,,,,,,,,,,,,,,,Initial/Repeat/ManWhistle.wav,3,NEW,,,2,1,0.25152,0,98,98,98,1,,
,,,,,,,,,,,,,2,5f2b280ea50bc45370328ee3,001,2021-02-18_17h04.07.953,GuessTheSound,2020.2.10,Linux x86_64,60,,,,,,,,,,,,,,,Footsteps_C.wav,2,SIMILAR,,,2,1,0.26916,0,99,99,99,1,,
,,,,,,,,,,,,,2,5f2b280ea50bc45370328ee3,001,2021-02-18_17h04.07.953,GuessTheSound,2020.2.10,Linux x86_64,60,,,,,,,,,,,,,,,Initial/Doubled/Growl_A.wav,3,NEW,,,2,1,0.238215,0,100,100,100,1,,
,,,,,,,,,,,,,2,5f2b280ea50bc45370328ee3,001,2021-02-18_17h04.07.953,GuessTheSound,2020.2.10,Linux x86_64,60,,,,,,,,,,,,,,,Test/Foils/Horse.wav,3,NEW,,,2,1,0.286,0,101,101,101,1,,
,,,,,,,,,,,,,1,5f2b280ea50bc45370328ee3,001,2021-02-18_17h04.07.953,GuessTheSound,2020.2.10,Linux x86_64,60,,,,,,,,,,,,,,,Initial/Doubled/Clap_A.wav,1,OLD,,,1,1,0.397265,0,102,102,102,1,,
,,,,,,,,,,,,,2,5f2b280ea50bc45370328ee3,001,2021-02-18_17h04.07.953,GuessTheSound,2020.2.10,Linux x86_64,60,,,,,,,,,,,,,,,Dog_D.wav,2,SIMILAR,,,2,1,0.285265,0,103,103,103,1,,
,,,,,,,,,,,,,1,5f2b280ea50bc45370328ee3,001,2021-02-18_17h04.07.953,GuessTheSound,2020.2.10,Linux x86_64,60,,,,,,,,,,,,,,,Initial/NoRepeat/Fireworks.wav,1,OLD,,,1,1,0.202355,0,104,104,104,1,,
,,,,,,,,,,,,,2,5f2b280ea50bc45370328ee3,001,2021-02-18_17h04.07.953,GuessTheSound,2020.2.10,Linux x86_64,60,,,,,,,,,,,,,,,Initial/Repeat/Printer.wav,3,NEW,,,2,1,0.893635,0,105,105,105,1,,
,,,,,,,,,,,,,2,5f2b280ea50bc45370328ee3,001,2021-02-18_17h04.07.953,GuessTheSound,2020.2.10,Linux x86_64,60,,,,,,,,,,,,,,,Test/Foils/Camera.wav,3,NEW,,,2,1,1.589605,0,106,106,106,1,,
,,,,,,,,,,,,,2,5f2b280ea50bc45370328ee3,001,2021-02-18_17h04.07.953,GuessTheSound,2020.2.10,Linux x86_64,60,,,,,,,,,,,,,,,Piano_B.wav,3,NEW,,,2,1,0.1592,0,107,107,107,1,,
,,,,,,,,,,,,,2,5f2b280ea50bc45370328ee3,001,2021-02-18_17h04.07.953,GuessTheSound,2020.2.10,Linux x86_64,60,,,,,,,,,,,,,,,Initial/Repeat/PaperRip.wav,3,NEW,,,2,1,0.268195,0,108,108,108,1,,
,,,,,,,,,,,,,2,5f2b280ea50bc45370328ee3,001,2021-02-18_17h04.07.953,GuessTheSound,2020.2.10,Linux x86_64,60,,,,,,,,,,,,,,,Coin_B.wav,2,SIMILAR,,,2,1,0.13521,0,109,109,109,1,,
,,,,,,,,,,,,,2,5f2b280ea50bc45370328ee3,001,2021-02-18_17h04.07.953,GuessTheSound,2020.2.10,Linux x86_64,60,,,,,,,,,,,,,,,Initial/NoRepeat/Droplet_B.wav,3,NEW,,,2,1,0.218845,0,110,110,110,1,,
,,,,,,,,,,,,,2,5f2b280ea50bc45370328ee3,001,2021-02-18_17h04.07.953,GuessTheSound,2020.2.10,Linux x86_64,60,,,,,,,,,,,,,,,Test/Foils/Steam.wav,3,NEW,,,2,1,0.077785,0,111,111,111,1,,
,,,,,,,,,,,,,1,5f2b280ea50bc45370328ee3,001,2021-02-18_17h04.07.953,GuessTheSound,2020.2.10,Linux x86_64,60,,,,,,,,,,,,,,,Initial/NoRepeat/Helicopter_A.wav,1,OLD,,,1,1,0.08706,0,112,112,112,1,,
,,,,,,,,,,,,,2,5f2b280ea50bc45370328ee3,001,2021-02-18_17h04.07.953,GuessTheSound,2020.2.10,Linux x86_64,60,,,,,,,,,,,,,,,CarStart_D.wav,3,NEW,,,2,1,0.09817,0,113,113,113,1,,
,,,,,,,,,,,,,1,5f2b280ea50bc45370328ee3,001,2021-02-18_17h04.07.953,GuessTheSound,2020.2.10,Linux x86_64,60,,,,,,,,,,,,,,,Initial/Repeat/Howl.wav,1,OLD,,,1,1,0.18546,0,114,114,114,1,,
,,,,,,,,,,,,,2,5f2b280ea50bc45370328ee3,001,2021-02-18_17h04.07.953,GuessTheSound,2020.2.10,Linux x86_64,60,,,,,,,,,,,,,,,Growl_B.wav,2,SIMILAR,,,2,1,0.305395,0,115,115,115,1,,
,,,,,,,,,,,,,2,5f2b280ea50bc45370328ee3,001,2021-02-18_17h04.07.953,GuessTheSound,2020.2.10,Linux x86_64,60,,,,,,,,,,,,,,,Goat_C.wav,2,SIMILAR,,,1,0,0.54347,0,116,116,116,1,,
,,,,,,,,,,,,,2,5f2b280ea50bc45370328ee3,001,2021-02-18_17h04.07.953,GuessTheSound,2020.2.10,Linux x86_64,60,,,,,,,,,,,,,,,Test/Foils/Donkey.wav,3,NEW,,,2,1,0.244865,0,117,117,117,1,,
,,,,,,,,,,,,,1,5f2b280ea50bc45370328ee3,001,2021-02-18_17h04.07.953,GuessTheSound,2020.2.10,Linux x86_64,60,,,,,,,,,,,,,,,Initial/Repeat/PaperRip.wav,1,OLD,,,1,1,0.469685,0,118,118,118,1,,
,,,,,,,,,,,,,2,5f2b280ea50bc45370328ee3,001,2021-02-18_17h04.07.953,GuessTheSound,2020.2.10,Linux x86_64,60,,,,,,,,,,,,,,,ManWhistle_C.wav,2,SIMILAR,,,1,0,0.416075,0,119,119,119,1,,
,,,,,,,,,,,,,1,5f2b280ea50bc45370328ee3,001,2021-02-18_17h04.07.953,GuessTheSound,2020.2.10,Linux x86_64,60,,,,,,,,,,,,,,,Test/Foils/Horse.wav,1,OLD,,,1,1,0.361365,0,120,120,120,1,,
,,,,,,,,,,,,,1,5f2b280ea50bc45370328ee3,001,2021-02-18_17h04.07.953,GuessTheSound,2020.2.10,Linux x86_64,60,,,,,,,,,,,,,,,Initial/Repeat/Printer.wav,1,OLD,,,1,1,1.084235,0,121,121,121,1,,
,,,,,,,,,,,,,1,5f2b280ea50bc45370328ee3,001,2021-02-18_17h04.07.953,GuessTheSound,2020.2.10,Linux x86_64,60,,,,,,,,,,,,,,,Test/Foils/Camera.wav,1,OLD,,,1,1,0.367625,0,122,122,122,1,,
,,,,,,,,,,,,,1,5f2b280ea50bc45370328ee3,001,2021-02-18_17h04.07.953,GuessTheSound,2020.2.10,Linux x86_64,60,,,,,,,,,,,,,,,Initial/NoRepeat/Droplet_B.wav,1,OLD,,,1,1,0.236175,0,123,123,123,1,,
,,,,,,,,,,,,,1,5f2b280ea50bc45370328ee3,001,2021-02-18_17h04.07.953,GuessTheSound,2020.2.10,Linux x86_64,60,,,,,,,,,,,,,,,Test/Foils/Steam.wav,1,OLD,,,1,1,0.051715,0,124,124,124,1,,
,,,,,,,,,,,,,2,5f2b280ea50bc45370328ee3,001,2021-02-18_17h04.07.953,GuessTheSound,2020.2.10,Linux x86_64,60,,,,,,,,,,,,,,,Initial/Doubled/CarStart_A.wav,2,SIMILAR,,,2,1,1.53694,0,125,125,125,1,,
,,,,,,,,,,,,,1,5f2b280ea50bc45370328ee3,001,2021-02-18_17h04.07.953,GuessTheSound,2020.2.10,Linux x86_64,60,,,,,,,,,,,,,,,Test/Foils/Donkey.wav,1,OLD,,,1,1,0.451345,0,126,126,126,1,,
,,,,,,,,,,,,,2,5f2b280ea50bc45370328ee3,001,2021-02-18_17h04.07.953,GuessTheSound,2020.2.10,Linux x86_64,60,,,,,,,,,,,,,,,Piano_C.wav,2,SIMILAR,,,2,1,0.318665,0,127,127,127,1,,
,,,,,,,,,,,,,,5f2b280ea50bc45370328ee3,001,2021-02-18_17h04.07.953,GuessTheSound,2020.2.10,Linux x86_64,60,,,,,,,,,,,,,,,,,,,,,,,,,,,,space,10.28916
