VolumeContinueKey.keys,VolumeContinueKey.rt,HeadphoneContinueKey.keys,HeadphoneContinueKey.rt,CheckResp.keys,CheckResp.corr,CheckResp.rt,trials_2.thisRepN,trials_2.thisTrialN,trials_2.thisN,trials_2.thisIndex,trials_2.ran,File,Correct,participant,session,date,expName,psychopyVersion,OS,frameRate,key_resp_2.keys,key_resp_2.rt,key_resp_3.keys,key_resp_3.rt,WelcomeContinueKey2.keys,WelcomeContinueKey2.rt,Practice_resp.keys,Practice_resp.corr,Practice_resp.rt,PracticeLoop.thisRepN,PracticeLoop.thisTrialN,PracticeLoop.thisN,PracticeLoop.thisIndex,PracticeLoop.ran,SoundFile,SoundCorrect,Correct2,SoundType,Trial,StartTast.keys,StartTast.rt,key_resp.keys,key_resp.corr,key_resp.rt,trials.thisRepN,trials.thisTrialN,trials.thisN,trials.thisIndex,trials.ran,ExitKey.keys,ExitKey.rt
space,2.14246,space,5.36301,3,1,1.43084,0,0,0,5,1,Headphone/t3_2.wav,3,5ff710f366c8103139f19489,1,2021-03-08_15h16.38.003,GuessTheSound,2020.2.10,Win32,60,,,,,,,,,,,,,,,,,,,,,,,,,,,,,,,
,,,,1,1,0.258385,0,1,1,1,1,Headphone/t1_2.wav,1,5ff710f366c8103139f19489,1,2021-03-08_15h16.38.003,GuessTheSound,2020.2.10,Win32,60,,,,,,,,,,,,,,,,,,,,,,,,,,,,,,,
,,,,2,1,0.274865,0,2,2,2,1,Headphone/t2_1.wav,2,5ff710f366c8103139f19489,1,2021-03-08_15h16.38.003,GuessTheSound,2020.2.10,Win32,60,,,,,,,,,,,,,,,,,,,,,,,,,,,,,,,
,,,,2,1,0.099215,0,3,3,3,1,Headphone/t2_2.wav,2,5ff710f366c8103139f19489,1,2021-03-08_15h16.38.003,GuessTheSound,2020.2.10,Win32,60,,,,,,,,,,,,,,,,,,,,,,,,,,,,,,,
,,,,1,1,0.278445,0,4,4,0,1,Headphone/t1_1.wav,1,5ff710f366c8103139f19489,1,2021-03-08_15h16.38.003,GuessTheSound,2020.2.10,Win32,60,,,,,,,,,,,,,,,,,,,,,,,,,,,,,,,
,,,,3,1,0.26445,0,5,5,4,1,Headphone/t3_1.wav,3,5ff710f366c8103139f19489,1,2021-03-08_15h16.38.003,GuessTheSound,2020.2.10,Win32,60,,,,,,,,,,,,,,,,,,,,,,,,,,,,,,,
,,,,,,,,,,,,,,5ff710f366c8103139f19489,1,2021-03-08_15h16.38.003,GuessTheSound,2020.2.10,Win32,60,space,12.37676,space,6.452765,space,4.086615,2,1,5.37454,0,0,0,0,1,Practice/Seagull_A.wav,2,3,NEW,Practice,,,,,,,,,,,,
,,,,,,,,,,,,,,5ff710f366c8103139f19489,1,2021-03-08_15h16.38.003,GuessTheSound,2020.2.10,Win32,60,,,,,,,2,1,1.242435,0,1,1,1,1,Practice/Skid_B.wav,2,3,NEW,Practice,,,,,,,,,,,,
,,,,,,,,,,,,,,5ff710f366c8103139f19489,1,2021-03-08_15h16.38.003,GuessTheSound,2020.2.10,Win32,60,,,,,,,1,1,1.113285,0,2,2,2,1,Practice/Seagull_A.wav,1,1,OLD,Practice,,,,,,,,,,,,
,,,,,,,,,,,,,,5ff710f366c8103139f19489,1,2021-03-08_15h16.38.003,GuessTheSound,2020.2.10,Win32,60,,,,,,,2,1,1.0615,0,3,3,3,1,Practice/Gargle_A.wav,2,3,NEW,Practice,,,,,,,,,,,,
,,,,,,,,,,,,,,5ff710f366c8103139f19489,1,2021-03-08_15h16.38.003,GuessTheSound,2020.2.10,Win32,60,,,,,,,2,1,2.368175,0,4,4,4,1,Practice/Gargle_B.wav,2,2,SIMILAR,Practice,,,,,,,,,,,,
,,,,,,,,,,,,,,5ff710f366c8103139f19489,1,2021-03-08_15h16.38.003,GuessTheSound,2020.2.10,Win32,60,,,,,,,,,,,,,,,SoundMST/Elephant_C.wav,2,3,NEW,A,space,3.369455,2,1,1.491915,0,0,0,0,1,,
,,,,,,,,,,,,,,5ff710f366c8103139f19489,1,2021-03-08_15h16.38.003,GuessTheSound,2020.2.10,Win32,60,,,,,,,,,,,,,,,SoundMST/Thunder_A.wav,2,3,NEW,A,,,2,1,0.41756,0,1,1,1,1,,
,,,,,,,,,,,,,,5ff710f366c8103139f19489,1,2021-03-08_15h16.38.003,GuessTheSound,2020.2.10,Win32,60,,,,,,,,,,,,,,,SoundMST/Chime_B.wav,2,3,NEW,A,,,2,1,0.36515,0,2,2,2,1,,
,,,,,,,,,,,,,,5ff710f366c8103139f19489,1,2021-03-08_15h16.38.003,GuessTheSound,2020.2.10,Win32,60,,,,,,,,,,,,,,,SoundMST/Toilet_B.wav,2,3,NEW,A,,,2,1,0.235345,0,3,3,3,1,,
,,,,,,,,,,,,,,5ff710f366c8103139f19489,1,2021-03-08_15h16.38.003,GuessTheSound,2020.2.10,Win32,60,,,,,,,,,,,,,,,SoundMST/Typing.wav,2,3,NEW,A,,,2,1,0.459985,0,4,4,4,1,,
,,,,,,,,,,,,,,5ff710f366c8103139f19489,1,2021-03-08_15h16.38.003,GuessTheSound,2020.2.10,Win32,60,,,,,,,,,,,,,,,SoundMST/Pour_D.wav,2,3,NEW,A,,,2,1,0.427225,0,5,5,5,1,,
,,,,,,,,,,,,,,5ff710f366c8103139f19489,1,2021-03-08_15h16.38.003,GuessTheSound,2020.2.10,Win32,60,,,,,,,,,,,,,,,SoundMST/Sleighbells_B.wav,2,3,NEW,A,,,2,1,0.25356,0,6,6,6,1,,
,,,,,,,,,,,,,,5ff710f366c8103139f19489,1,2021-03-08_15h16.38.003,GuessTheSound,2020.2.10,Win32,60,,,,,,,,,,,,,,,SoundMST/Buzz.wav,2,3,NEW,A,,,2,1,0.25847,0,7,7,7,1,,
,,,,,,,,,,,,,,5ff710f366c8103139f19489,1,2021-03-08_15h16.38.003,GuessTheSound,2020.2.10,Win32,60,,,,,,,,,,,,,,,SoundMST/Baby_F.wav,2,3,NEW,A,,,2,1,0.268275,0,8,8,8,1,,
,,,,,,,,,,,,,,5ff710f366c8103139f19489,1,2021-03-08_15h16.38.003,GuessTheSound,2020.2.10,Win32,60,,,,,,,,,,,,,,,SoundMST/Thunder_A.wav,1,1,OLD,A,,,1,1,0.397545,0,9,9,9,1,,
,,,,,,,,,,,,,,5ff710f366c8103139f19489,1,2021-03-08_15h16.38.003,GuessTheSound,2020.2.10,Win32,60,,,,,,,,,,,,,,,SoundMST/Mosquito_B.wav,2,3,NEW,A,,,2,1,0.241165,0,10,10,10,1,,
,,,,,,,,,,,,,,5ff710f366c8103139f19489,1,2021-03-08_15h16.38.003,GuessTheSound,2020.2.10,Win32,60,,,,,,,,,,,,,,,SoundMST/DialTone.wav,2,3,NEW,A,,,2,1,0.242385,0,11,11,11,1,,
,,,,,,,,,,,,,,5ff710f366c8103139f19489,1,2021-03-08_15h16.38.003,GuessTheSound,2020.2.10,Win32,60,,,,,,,,,,,,,,,SoundMST/Elephant_D.wav,2,2,SIMILAR,A,,,1,0,0.19044,0,12,12,12,1,,
,,,,,,,,,,,,,,5ff710f366c8103139f19489,1,2021-03-08_15h16.38.003,GuessTheSound,2020.2.10,Win32,60,,,,,,,,,,,,,,,SoundMST/Writing_A.wav,2,3,NEW,A,,,2,1,0.22267,0,13,13,13,1,,
,,,,,,,,,,,,,,5ff710f366c8103139f19489,1,2021-03-08_15h16.38.003,GuessTheSound,2020.2.10,Win32,60,,,,,,,,,,,,,,,SoundMST/Faucet_A.wav,2,3,NEW,A,,,1,0,2.46035,0,14,14,14,1,,
,,,,,,,,,,,,,,5ff710f366c8103139f19489,1,2021-03-08_15h16.38.003,GuessTheSound,2020.2.10,Win32,60,,,,,,,,,,,,,,,SoundMST/Typing.wav,1,1,OLD,A,,,1,1,0.258065,0,15,15,15,1,,
,,,,,,,,,,,,,,5ff710f366c8103139f19489,1,2021-03-08_15h16.38.003,GuessTheSound,2020.2.10,Win32,60,,,,,,,,,,,,,,,SoundMST/Sleighbells_B.wav,1,1,OLD,A,,,1,1,0.250845,0,16,16,16,1,,
,,,,,,,,,,,,,,5ff710f366c8103139f19489,1,2021-03-08_15h16.38.003,GuessTheSound,2020.2.10,Win32,60,,,,,,,,,,,,,,,SoundMST/Wind_B.wav,2,3,NEW,A,,,2,1,0.236,0,17,17,17,1,,
,,,,,,,,,,,,,,5ff710f366c8103139f19489,1,2021-03-08_15h16.38.003,GuessTheSound,2020.2.10,Win32,60,,,,,,,,,,,,,,,SoundMST/Toilet_B.wav,1,1,OLD,A,,,1,1,0.226275,0,18,18,18,1,,
,,,,,,,,,,,,,,5ff710f366c8103139f19489,1,2021-03-08_15h16.38.003,GuessTheSound,2020.2.10,Win32,60,,,,,,,,,,,,,,,SoundMST/Pour_C.wav,2,2,SIMILAR,A,,,1,0,0.305845,0,19,19,19,1,,
,,,,,,,,,,,,,,5ff710f366c8103139f19489,1,2021-03-08_15h16.38.003,GuessTheSound,2020.2.10,Win32,60,,,,,,,,,,,,,,,SoundMST/Chime_A.wav,2,2,SIMILAR,A,,,2,1,0.224195,0,20,20,20,1,,
,,,,,,,,,,,,,,5ff710f366c8103139f19489,1,2021-03-08_15h16.38.003,GuessTheSound,2020.2.10,Win32,60,,,,,,,,,,,,,,,SoundMST/Buzz.wav,1,1,OLD,A,,,1,1,0.33132,0,21,21,21,1,,
,,,,,,,,,,,,,,5ff710f366c8103139f19489,1,2021-03-08_15h16.38.003,GuessTheSound,2020.2.10,Win32,60,,,,,,,,,,,,,,,SoundMST/Writing_C.wav,2,2,SIMILAR,A,,,2,1,0.385865,0,22,22,22,1,,
,,,,,,,,,,,,,,5ff710f366c8103139f19489,1,2021-03-08_15h16.38.003,GuessTheSound,2020.2.10,Win32,60,,,,,,,,,,,,,,,SoundMST/Mosquito_B.wav,1,1,OLD,A,,,1,1,1.74607,0,23,23,23,1,,
,,,,,,,,,,,,,,5ff710f366c8103139f19489,1,2021-03-08_15h16.38.003,GuessTheSound,2020.2.10,Win32,60,,,,,,,,,,,,,,,SoundMST/Cough_G.wav,2,3,NEW,A,,,2,1,0.20981,0,24,24,24,1,,
,,,,,,,,,,,,,,5ff710f366c8103139f19489,1,2021-03-08_15h16.38.003,GuessTheSound,2020.2.10,Win32,60,,,,,,,,,,,,,,,SoundMST/DialTone.wav,1,1,OLD,A,,,1,1,0.76153,0,25,25,25,1,,
,,,,,,,,,,,,,,5ff710f366c8103139f19489,1,2021-03-08_15h16.38.003,GuessTheSound,2020.2.10,Win32,60,,,,,,,,,,,,,,,SoundMST/Puff_A.wav,2,3,NEW,A,,,2,1,0.258415,0,26,26,26,1,,
,,,,,,,,,,,,,,5ff710f366c8103139f19489,1,2021-03-08_15h16.38.003,GuessTheSound,2020.2.10,Win32,60,,,,,,,,,,,,,,,SoundMST/Heartbeat.wav,2,3,NEW,A,,,2,1,0.27259,0,27,27,27,1,,
,,,,,,,,,,,,,,5ff710f366c8103139f19489,1,2021-03-08_15h16.38.003,GuessTheSound,2020.2.10,Win32,60,,,,,,,,,,,,,,,SoundMST/IceDrop.wav,2,3,NEW,A,,,2,1,0.319855,0,28,28,28,1,,
,,,,,,,,,,,,,,5ff710f366c8103139f19489,1,2021-03-08_15h16.38.003,GuessTheSound,2020.2.10,Win32,60,,,,,,,,,,,,,,,SoundMST/Bird_E.wav,2,3,NEW,A,,,2,1,0.346625,0,29,29,29,1,,
,,,,,,,,,,,,,,5ff710f366c8103139f19489,1,2021-03-08_15h16.38.003,GuessTheSound,2020.2.10,Win32,60,,,,,,,,,,,,,,,SoundMST/Baby_E.wav,2,2,SIMILAR,A,,,2,1,0.37663,0,30,30,30,1,,
,,,,,,,,,,,,,,5ff710f366c8103139f19489,1,2021-03-08_15h16.38.003,GuessTheSound,2020.2.10,Win32,60,,,,,,,,,,,,,,,SoundMST/Faucet_C.wav,2,2,SIMILAR,A,,,1,0,0.836925,0,31,31,31,1,,
,,,,,,,,,,,,,,5ff710f366c8103139f19489,1,2021-03-08_15h16.38.003,GuessTheSound,2020.2.10,Win32,60,,,,,,,,,,,,,,,SoundMST/Duck_C.wav,2,3,NEW,A,,,2,1,0.24058,0,32,32,32,1,,
,,,,,,,,,,,,,,5ff710f366c8103139f19489,1,2021-03-08_15h16.38.003,GuessTheSound,2020.2.10,Win32,60,,,,,,,,,,,,,,,SoundMST/Laugh_A.wav,2,3,NEW,A,,,2,1,0.25069,0,33,33,33,1,,
,,,,,,,,,,,,,,5ff710f366c8103139f19489,1,2021-03-08_15h16.38.003,GuessTheSound,2020.2.10,Win32,60,,,,,,,,,,,,,,,SoundMST/Wind_B.wav,1,1,OLD,A,,,1,1,0.742005,0,34,34,34,1,,
,,,,,,,,,,,,,,5ff710f366c8103139f19489,1,2021-03-08_15h16.38.003,GuessTheSound,2020.2.10,Win32,60,,,,,,,,,,,,,,,SoundMST/Chicken_A.wav,2,3,NEW,A,,,2,1,0.409385,0,35,35,35,1,,
,,,,,,,,,,,,,,5ff710f366c8103139f19489,1,2021-03-08_15h16.38.003,GuessTheSound,2020.2.10,Win32,60,,,,,,,,,,,,,,,SoundMST/Guitar_B.wav,2,3,NEW,A,,,2,1,0.348165,0,36,36,36,1,,
,,,,,,,,,,,,,,5ff710f366c8103139f19489,1,2021-03-08_15h16.38.003,GuessTheSound,2020.2.10,Win32,60,,,,,,,,,,,,,,,SoundMST/Cello.wav,2,3,NEW,A,,,2,1,0.32076,0,37,37,37,1,,
,,,,,,,,,,,,,,5ff710f366c8103139f19489,1,2021-03-08_15h16.38.003,GuessTheSound,2020.2.10,Win32,60,,,,,,,,,,,,,,,SoundMST/Heartbeat.wav,1,1,OLD,A,,,1,1,0.486565,0,38,38,38,1,,
,,,,,,,,,,,,,,5ff710f366c8103139f19489,1,2021-03-08_15h16.38.003,GuessTheSound,2020.2.10,Win32,60,,,,,,,,,,,,,,,SoundMST/Airplane_B.wav,2,3,NEW,A,,,2,1,0.28125,0,39,39,39,1,,
,,,,,,,,,,,,,,5ff710f366c8103139f19489,1,2021-03-08_15h16.38.003,GuessTheSound,2020.2.10,Win32,60,,,,,,,,,,,,,,,SoundMST/Cough_A.wav,2,2,SIMILAR,A,,,1,0,0.61268,0,40,40,40,1,,
,,,,,,,,,,,,,,5ff710f366c8103139f19489,1,2021-03-08_15h16.38.003,GuessTheSound,2020.2.10,Win32,60,,,,,,,,,,,,,,,SoundMST/Trumpet_B.wav,2,3,NEW,A,,,2,1,0.25797,0,41,41,41,1,,
,,,,,,,,,,,,,,5ff710f366c8103139f19489,1,2021-03-08_15h16.38.003,GuessTheSound,2020.2.10,Win32,60,,,,,,,,,,,,,,,SoundMST/IceDrop.wav,1,1,OLD,A,,,1,1,0.24864,0,42,42,42,1,,
,,,,,,,,,,,,,,5ff710f366c8103139f19489,1,2021-03-08_15h16.38.003,GuessTheSound,2020.2.10,Win32,60,,,,,,,,,,,,,,,SoundMST/Sneeze_B.wav,2,3,NEW,A,,,2,1,0.25135,0,43,43,43,1,,
,,,,,,,,,,,,,,5ff710f366c8103139f19489,1,2021-03-08_15h16.38.003,GuessTheSound,2020.2.10,Win32,60,,,,,,,,,,,,,,,SoundMST/Puff_A.wav,1,1,OLD,A,,,1,1,0.20946,0,44,44,44,1,,
,,,,,,,,,,,,,,5ff710f366c8103139f19489,1,2021-03-08_15h16.38.003,GuessTheSound,2020.2.10,Win32,60,,,,,,,,,,,,,,,SoundMST/Bird_A.wav,2,2,SIMILAR,A,,,2,1,0.21866,0,45,45,45,1,,
,,,,,,,,,,,,,,5ff710f366c8103139f19489,1,2021-03-08_15h16.38.003,GuessTheSound,2020.2.10,Win32,60,,,,,,,,,,,,,,,SoundMST/Snore_D.wav,2,3,NEW,A,,,2,1,0.285495,0,46,46,46,1,,
,,,,,,,,,,,,,,5ff710f366c8103139f19489,1,2021-03-08_15h16.38.003,GuessTheSound,2020.2.10,Win32,60,,,,,,,,,,,,,,,SoundMST/Guitar_B.wav,1,1,OLD,A,,,1,1,0.32695,0,47,47,47,1,,
,,,,,,,,,,,,,,5ff710f366c8103139f19489,1,2021-03-08_15h16.38.003,GuessTheSound,2020.2.10,Win32,60,,,,,,,,,,,,,,,SoundMST/Cat_A.wav,2,3,NEW,A,,,2,1,0.21603,0,48,48,48,1,,
,,,,,,,,,,,,,,5ff710f366c8103139f19489,1,2021-03-08_15h16.38.003,GuessTheSound,2020.2.10,Win32,60,,,,,,,,,,,,,,,SoundMST/Whistle_A.wav,2,3,NEW,A,,,1,0,0.15355,0,49,49,49,1,,
,,,,,,,,,,,,,,5ff710f366c8103139f19489,1,2021-03-08_15h16.38.003,GuessTheSound,2020.2.10,Win32,60,,,,,,,,,,,,,,,SoundMST/Duck_D.wav,2,2,SIMILAR,A,,,1,0,0.273565,0,50,50,50,1,,
,,,,,,,,,,,,,,5ff710f366c8103139f19489,1,2021-03-08_15h16.38.003,GuessTheSound,2020.2.10,Win32,60,,,,,,,,,,,,,,,SoundMST/Laugh_D.wav,2,2,SIMILAR,A,,,1,0,0.378145,0,51,51,51,1,,
,,,,,,,,,,,,,,5ff710f366c8103139f19489,1,2021-03-08_15h16.38.003,GuessTheSound,2020.2.10,Win32,60,,,,,,,,,,,,,,,SoundMST/Chicken_A.wav,1,1,OLD,A,,,1,1,1.33762,0,52,52,52,1,,
,,,,,,,,,,,,,,5ff710f366c8103139f19489,1,2021-03-08_15h16.38.003,GuessTheSound,2020.2.10,Win32,60,,,,,,,,,,,,,,,SoundMST/Cello.wav,1,1,OLD,A,,,1,1,0.201805,0,53,53,53,1,,
,,,,,,,,,,,,,,5ff710f366c8103139f19489,1,2021-03-08_15h16.38.003,GuessTheSound,2020.2.10,Win32,60,,,,,,,,,,,,,,,SoundMST/Slurp.wav,2,3,NEW,A,,,2,1,0.27135,0,54,54,54,1,,
,,,,,,,,,,,,,,5ff710f366c8103139f19489,1,2021-03-08_15h16.38.003,GuessTheSound,2020.2.10,Win32,60,,,,,,,,,,,,,,,SoundMST/Chomp_A.wav,2,3,NEW,A,,,2,1,0.45883,0,55,55,55,1,,
,,,,,,,,,,,,,,5ff710f366c8103139f19489,1,2021-03-08_15h16.38.003,GuessTheSound,2020.2.10,Win32,60,,,,,,,,,,,,,,,SoundMST/Airplane_B.wav,1,1,OLD,A,,,2,0,1.476525,0,56,56,56,1,,
,,,,,,,,,,,,,,5ff710f366c8103139f19489,1,2021-03-08_15h16.38.003,GuessTheSound,2020.2.10,Win32,60,,,,,,,,,,,,,,,SoundMST/ManWhistle.wav,2,3,NEW,A,,,2,1,0.31333,0,57,57,57,1,,
,,,,,,,,,,,,,,5ff710f366c8103139f19489,1,2021-03-08_15h16.38.003,GuessTheSound,2020.2.10,Win32,60,,,,,,,,,,,,,,,SoundMST/Trumpet_B.wav,1,1,OLD,A,,,1,1,1.15376,0,58,58,58,1,,
,,,,,,,,,,,,,,5ff710f366c8103139f19489,1,2021-03-08_15h16.38.003,GuessTheSound,2020.2.10,Win32,60,,,,,,,,,,,,,,,SoundMST/Cup.wav,2,3,NEW,A,,,2,1,0.56168,0,59,59,59,1,,
,,,,,,,,,,,,,,5ff710f366c8103139f19489,1,2021-03-08_15h16.38.003,GuessTheSound,2020.2.10,Win32,60,,,,,,,,,,,,,,,SoundMST/Snore_E.wav,2,2,SIMILAR,A,,,2,1,0.417065,0,60,60,60,1,,
,,,,,,,,,,,,,,5ff710f366c8103139f19489,1,2021-03-08_15h16.38.003,GuessTheSound,2020.2.10,Win32,60,,,,,,,,,,,,,,,SoundMST/Airhorn.wav,2,3,NEW,A,,,2,1,0.222885,0,61,61,61,1,,
,,,,,,,,,,,,,,5ff710f366c8103139f19489,1,2021-03-08_15h16.38.003,GuessTheSound,2020.2.10,Win32,60,,,,,,,,,,,,,,,SoundMST/Whistle_C.wav,2,2,SIMILAR,A,,,2,1,0.25819,0,62,62,62,1,,
,,,,,,,,,,,,,,5ff710f366c8103139f19489,1,2021-03-08_15h16.38.003,GuessTheSound,2020.2.10,Win32,60,,,,,,,,,,,,,,,SoundMST/Phone_D.wav,2,3,NEW,A,,,2,1,0.199495,0,63,63,63,1,,
,,,,,,,,,,,,,,5ff710f366c8103139f19489,1,2021-03-08_15h16.38.003,GuessTheSound,2020.2.10,Win32,60,,,,,,,,,,,,,,,SoundMST/Sneeze_B.wav,1,1,OLD,A,,,1,1,0.31977,0,64,64,64,1,,
,,,,,,,,,,,,,,5ff710f366c8103139f19489,1,2021-03-08_15h16.38.003,GuessTheSound,2020.2.10,Win32,60,,,,,,,,,,,,,,,SoundMST/Cat_A.wav,1,1,OLD,A,,,1,1,0.257335,0,65,65,65,1,,
,,,,,,,,,,,,,,5ff710f366c8103139f19489,1,2021-03-08_15h16.38.003,GuessTheSound,2020.2.10,Win32,60,,,,,,,,,,,,,,,SoundMST/Bagpipe.wav,2,3,NEW,A,,,2,1,0.245995,0,66,66,66,1,,
,,,,,,,,,,,,,,5ff710f366c8103139f19489,1,2021-03-08_15h16.38.003,GuessTheSound,2020.2.10,Win32,60,,,,,,,,,,,,,,,SoundMST/Slurp.wav,1,1,OLD,A,,,1,1,0.215995,0,67,67,67,1,,
,,,,,,,,,,,,,,5ff710f366c8103139f19489,1,2021-03-08_15h16.38.003,GuessTheSound,2020.2.10,Win32,60,,,,,,,,,,,,,,,SoundMST/Bowlingpins.wav,2,3,NEW,A,,,2,1,0.22977,0,68,68,68,1,,
,,,,,,,,,,,,,,5ff710f366c8103139f19489,1,2021-03-08_15h16.38.003,GuessTheSound,2020.2.10,Win32,60,,,,,,,,,,,,,,,SoundMST/Cow.wav,2,3,NEW,A,,,2,1,0.014485,0,69,69,69,1,,
,,,,,,,,,,,,,,5ff710f366c8103139f19489,1,2021-03-08_15h16.38.003,GuessTheSound,2020.2.10,Win32,60,,,,,,,,,,,,,,,SoundMST/Siren_E.wav,2,3,NEW,A,,,2,1,0.260585,0,70,70,70,1,,
,,,,,,,,,,,,,,5ff710f366c8103139f19489,1,2021-03-08_15h16.38.003,GuessTheSound,2020.2.10,Win32,60,,,,,,,,,,,,,,,SoundMST/ManWhistle.wav,1,1,OLD,A,,,1,1,0.21829,0,71,71,71,1,,
,,,,,,,,,,,,,,5ff710f366c8103139f19489,1,2021-03-08_15h16.38.003,GuessTheSound,2020.2.10,Win32,60,,,,,,,,,,,,,,,SoundMST/Crow_B.wav,2,3,NEW,A,,,2,1,0.56731,0,72,72,72,1,,
,,,,,,,,,,,,,,5ff710f366c8103139f19489,1,2021-03-08_15h16.38.003,GuessTheSound,2020.2.10,Win32,60,,,,,,,,,,,,,,,SoundMST/Chomp_C.wav,2,2,SIMILAR,A,,,2,1,0.236705,0,73,73,73,1,,
,,,,,,,,,,,,,,5ff710f366c8103139f19489,1,2021-03-08_15h16.38.003,GuessTheSound,2020.2.10,Win32,60,,,,,,,,,,,,,,,SoundMST/Cup.wav,1,1,OLD,A,,,1,1,0.23272,0,74,74,74,1,,
,,,,,,,,,,,,,,5ff710f366c8103139f19489,1,2021-03-08_15h16.38.003,GuessTheSound,2020.2.10,Win32,60,,,,,,,,,,,,,,,SoundMST/Bullfrog.wav,2,3,NEW,A,,,2,1,0.299105,0,75,75,75,1,,
,,,,,,,,,,,,,,5ff710f366c8103139f19489,1,2021-03-08_15h16.38.003,GuessTheSound,2020.2.10,Win32,60,,,,,,,,,,,,,,,SoundMST/Phone_E.wav,2,2,SIMILAR,A,,,1,0,0.17932,0,76,76,76,1,,
,,,,,,,,,,,,,,5ff710f366c8103139f19489,1,2021-03-08_15h16.38.003,GuessTheSound,2020.2.10,Win32,60,,,,,,,,,,,,,,,SoundMST/Bagpipe.wav,1,1,OLD,A,,,1,1,0.272785,0,77,77,77,1,,
,,,,,,,,,,,,,,5ff710f366c8103139f19489,1,2021-03-08_15h16.38.003,GuessTheSound,2020.2.10,Win32,60,,,,,,,,,,,,,,,SoundMST/HairDryer_A.wav,2,3,NEW,A,,,2,1,0.230375,0,78,78,78,1,,
,,,,,,,,,,,,,,5ff710f366c8103139f19489,1,2021-03-08_15h16.38.003,GuessTheSound,2020.2.10,Win32,60,,,,,,,,,,,,,,,SoundMST/Airhorn.wav,1,1,OLD,A,,,1,1,0.200055,0,79,79,79,1,,
,,,,,,,,,,,,,,5ff710f366c8103139f19489,1,2021-03-08_15h16.38.003,GuessTheSound,2020.2.10,Win32,60,,,,,,,,,,,,,,,SoundMST/Hammer_A.wav,2,3,NEW,A,,,2,1,0.260995,0,80,80,80,1,,
,,,,,,,,,,,,,,5ff710f366c8103139f19489,1,2021-03-08_15h16.38.003,GuessTheSound,2020.2.10,Win32,60,,,,,,,,,,,,,,,SoundMST/Cuckoo_A.wav,2,3,NEW,A,,,2,1,0.210805,0,81,81,81,1,,
,,,,,,,,,,,,,,5ff710f366c8103139f19489,1,2021-03-08_15h16.38.003,GuessTheSound,2020.2.10,Win32,60,,,,,,,,,,,,,,,SoundMST/Cow.wav,1,1,OLD,A,,,1,1,0.215755,0,82,82,82,1,,
,,,,,,,,,,,,,,5ff710f366c8103139f19489,1,2021-03-08_15h16.38.003,GuessTheSound,2020.2.10,Win32,60,,,,,,,,,,,,,,,SoundMST/Footsteps_G.wav,2,3,NEW,A,,,2,1,0.236805,0,83,83,83,1,,
,,,,,,,,,,,,,,5ff710f366c8103139f19489,1,2021-03-08_15h16.38.003,GuessTheSound,2020.2.10,Win32,60,,,,,,,,,,,,,,,SoundMST/Dog_H.wav,2,3,NEW,A,,,2,1,0.359005,0,84,84,84,1,,
,,,,,,,,,,,,,,5ff710f366c8103139f19489,1,2021-03-08_15h16.38.003,GuessTheSound,2020.2.10,Win32,60,,,,,,,,,,,,,,,SoundMST/Bowlingpins.wav,1,1,OLD,A,,,1,1,0.215915,0,85,85,85,1,,
,,,,,,,,,,,,,,5ff710f366c8103139f19489,1,2021-03-08_15h16.38.003,GuessTheSound,2020.2.10,Win32,60,,,,,,,,,,,,,,,SoundMST/Piano_D.wav,2,3,NEW,A,,,2,1,0.250725,0,86,86,86,1,,
,,,,,,,,,,,,,,5ff710f366c8103139f19489,1,2021-03-08_15h16.38.003,GuessTheSound,2020.2.10,Win32,60,,,,,,,,,,,,,,,SoundMST/Fireworks.wav,2,3,NEW,A,,,2,1,0.26534,0,87,87,87,1,,
,,,,,,,,,,,,,,5ff710f366c8103139f19489,1,2021-03-08_15h16.38.003,GuessTheSound,2020.2.10,Win32,60,,,,,,,,,,,,,,,SoundMST/Bullfrog.wav,1,1,OLD,A,,,1,1,0.23412,0,88,88,88,1,,
,,,,,,,,,,,,,,5ff710f366c8103139f19489,1,2021-03-08_15h16.38.003,GuessTheSound,2020.2.10,Win32,60,,,,,,,,,,,,,,,SoundMST/Siren_A.wav,2,2,SIMILAR,A,,,2,1,0.23046,0,89,89,89,1,,
,,,,,,,,,,,,,,5ff710f366c8103139f19489,1,2021-03-08_15h16.38.003,GuessTheSound,2020.2.10,Win32,60,,,,,,,,,,,,,,,SoundMST/Crow_A.wav,2,2,SIMILAR,A,,,1,0,0.27435,0,90,90,90,1,,
,,,,,,,,,,,,,,5ff710f366c8103139f19489,1,2021-03-08_15h16.38.003,GuessTheSound,2020.2.10,Win32,60,,,,,,,,,,,,,,,SoundMST/Goat_D.wav,2,3,NEW,A,,,2,1,0.24343,0,91,91,91,1,,
,,,,,,,,,,,,,,5ff710f366c8103139f19489,1,2021-03-08_15h16.38.003,GuessTheSound,2020.2.10,Win32,60,,,,,,,,,,,,,,,SoundMST/HairDryer_A.wav,1,1,OLD,A,,,1,1,0.251195,0,92,92,92,1,,
,,,,,,,,,,,,,,5ff710f366c8103139f19489,1,2021-03-08_15h16.38.003,GuessTheSound,2020.2.10,Win32,60,,,,,,,,,,,,,,,SoundMST/Cuckoo_A.wav,1,1,OLD,A,,,1,1,0.22295,0,93,93,93,1,,
,,,,,,,,,,,,,,5ff710f366c8103139f19489,1,2021-03-08_15h16.38.003,GuessTheSound,2020.2.10,Win32,60,,,,,,,,,,,,,,,SoundMST/Coin_D.wav,2,3,NEW,A,,,2,1,0.306155,0,94,94,94,1,,
,,,,,,,,,,,,,,5ff710f366c8103139f19489,1,2021-03-08_15h16.38.003,GuessTheSound,2020.2.10,Win32,60,,,,,,,,,,,,,,,SoundMST/Howl.wav,2,3,NEW,A,,,2,1,0.27326,0,95,95,95,1,,
,,,,,,,,,,,,,,5ff710f366c8103139f19489,1,2021-03-08_15h16.38.003,GuessTheSound,2020.2.10,Win32,60,,,,,,,,,,,,,,,SoundMST/Hammer_A.wav,1,1,OLD,A,,,1,1,0.350385,0,96,96,96,1,,
,,,,,,,,,,,,,,5ff710f366c8103139f19489,1,2021-03-08_15h16.38.003,GuessTheSound,2020.2.10,Win32,60,,,,,,,,,,,,,,,SoundMST/Helicopter_A.wav,2,3,NEW,A,,,2,1,0.285,0,97,97,97,1,,
,,,,,,,,,,,,,,5ff710f366c8103139f19489,1,2021-03-08_15h16.38.003,GuessTheSound,2020.2.10,Win32,60,,,,,,,,,,,,,,,SoundMST/Bubbles_A.wav,2,3,NEW,A,,,2,1,1.233965,0,98,98,98,1,,
,,,,,,,,,,,,,,5ff710f366c8103139f19489,1,2021-03-08_15h16.38.003,GuessTheSound,2020.2.10,Win32,60,,,,,,,,,,,,,,,SoundMST/Footsteps_F.wav,2,2,SIMILAR,A,,,2,1,0.62006,0,99,99,99,1,,
,,,,,,,,,,,,,,5ff710f366c8103139f19489,1,2021-03-08_15h16.38.003,GuessTheSound,2020.2.10,Win32,60,,,,,,,,,,,,,,,SoundMST/Growl_G.wav,2,3,NEW,A,,,1,0,1.224835,0,100,100,100,1,,
,,,,,,,,,,,,,,5ff710f366c8103139f19489,1,2021-03-08_15h16.38.003,GuessTheSound,2020.2.10,Win32,60,,,,,,,,,,,,,,,SoundMST/Horse.wav,2,3,NEW,A,,,2,1,0.25618,0,101,101,101,1,,
,,,,,,,,,,,,,,5ff710f366c8103139f19489,1,2021-03-08_15h16.38.003,GuessTheSound,2020.2.10,Win32,60,,,,,,,,,,,,,,,SoundMST/Piano_D.wav,1,1,OLD,A,,,1,1,0.209625,0,102,102,102,1,,
,,,,,,,,,,,,,,5ff710f366c8103139f19489,1,2021-03-08_15h16.38.003,GuessTheSound,2020.2.10,Win32,60,,,,,,,,,,,,,,,SoundMST/Dog_F.wav,2,2,SIMILAR,A,,,2,1,0.84756,0,103,103,103,1,,
,,,,,,,,,,,,,,5ff710f366c8103139f19489,1,2021-03-08_15h16.38.003,GuessTheSound,2020.2.10,Win32,60,,,,,,,,,,,,,,,SoundMST/Fireworks.wav,1,1,OLD,A,,,1,1,1.67552,0,104,104,104,1,,
,,,,,,,,,,,,,,5ff710f366c8103139f19489,1,2021-03-08_15h16.38.003,GuessTheSound,2020.2.10,Win32,60,,,,,,,,,,,,,,,SoundMST/Printer.wav,2,3,NEW,A,,,2,1,0.30659,0,105,105,105,1,,
,,,,,,,,,,,,,,5ff710f366c8103139f19489,1,2021-03-08_15h16.38.003,GuessTheSound,2020.2.10,Win32,60,,,,,,,,,,,,,,,SoundMST/Camera.wav,2,3,NEW,A,,,2,1,0.26761,0,106,106,106,1,,
,,,,,,,,,,,,,,5ff710f366c8103139f19489,1,2021-03-08_15h16.38.003,GuessTheSound,2020.2.10,Win32,60,,,,,,,,,,,,,,,SoundMST/Clap_B.wav,2,3,NEW,A,,,1,0,0.139035,0,107,107,107,1,,
,,,,,,,,,,,,,,5ff710f366c8103139f19489,1,2021-03-08_15h16.38.003,GuessTheSound,2020.2.10,Win32,60,,,,,,,,,,,,,,,SoundMST/PaperRip.wav,2,3,NEW,A,,,2,1,0.325445,0,108,108,108,1,,
,,,,,,,,,,,,,,5ff710f366c8103139f19489,1,2021-03-08_15h16.38.003,GuessTheSound,2020.2.10,Win32,60,,,,,,,,,,,,,,,SoundMST/Coin_E.wav,2,2,SIMILAR,A,,,1,0,0.286355,0,109,109,109,1,,
,,,,,,,,,,,,,,5ff710f366c8103139f19489,1,2021-03-08_15h16.38.003,GuessTheSound,2020.2.10,Win32,60,,,,,,,,,,,,,,,SoundMST/Droplet_B.wav,2,3,NEW,A,,,2,1,0.209665,0,110,110,110,1,,
,,,,,,,,,,,,,,5ff710f366c8103139f19489,1,2021-03-08_15h16.38.003,GuessTheSound,2020.2.10,Win32,60,,,,,,,,,,,,,,,SoundMST/Steam.wav,2,3,NEW,A,,,2,1,0.219395,0,111,111,111,1,,
,,,,,,,,,,,,,,5ff710f366c8103139f19489,1,2021-03-08_15h16.38.003,GuessTheSound,2020.2.10,Win32,60,,,,,,,,,,,,,,,SoundMST/Helicopter_A.wav,1,1,OLD,A,,,1,1,0.236425,0,112,112,112,1,,
,,,,,,,,,,,,,,5ff710f366c8103139f19489,1,2021-03-08_15h16.38.003,GuessTheSound,2020.2.10,Win32,60,,,,,,,,,,,,,,,SoundMST/CarStart_A.wav,2,3,NEW,A,,,2,1,0.194675,0,113,113,113,1,,
,,,,,,,,,,,,,,5ff710f366c8103139f19489,1,2021-03-08_15h16.38.003,GuessTheSound,2020.2.10,Win32,60,,,,,,,,,,,,,,,SoundMST/Howl.wav,1,1,OLD,A,,,1,1,0.22434,0,114,114,114,1,,
,,,,,,,,,,,,,,5ff710f366c8103139f19489,1,2021-03-08_15h16.38.003,GuessTheSound,2020.2.10,Win32,60,,,,,,,,,,,,,,,SoundMST/Growl_H.wav,2,2,SIMILAR,A,,,1,0,0.22628,0,115,115,115,1,,
,,,,,,,,,,,,,,5ff710f366c8103139f19489,1,2021-03-08_15h16.38.003,GuessTheSound,2020.2.10,Win32,60,,,,,,,,,,,,,,,SoundMST/Goat_C.wav,2,2,SIMILAR,A,,,1,0,0.20923,0,116,116,116,1,,
,,,,,,,,,,,,,,5ff710f366c8103139f19489,1,2021-03-08_15h16.38.003,GuessTheSound,2020.2.10,Win32,60,,,,,,,,,,,,,,,SoundMST/Donkey.wav,2,3,NEW,A,,,2,1,0.716925,0,117,117,117,1,,
,,,,,,,,,,,,,,5ff710f366c8103139f19489,1,2021-03-08_15h16.38.003,GuessTheSound,2020.2.10,Win32,60,,,,,,,,,,,,,,,SoundMST/PaperRip.wav,1,1,OLD,A,,,1,1,0.251895,0,118,118,118,1,,
,,,,,,,,,,,,,,5ff710f366c8103139f19489,1,2021-03-08_15h16.38.003,GuessTheSound,2020.2.10,Win32,60,,,,,,,,,,,,,,,SoundMST/Bubbles_B.wav,2,2,SIMILAR,A,,,2,1,0.250525,0,119,119,119,1,,
,,,,,,,,,,,,,,5ff710f366c8103139f19489,1,2021-03-08_15h16.38.003,GuessTheSound,2020.2.10,Win32,60,,,,,,,,,,,,,,,SoundMST/Horse.wav,1,1,OLD,A,,,1,1,0.272905,0,120,120,120,1,,
,,,,,,,,,,,,,,5ff710f366c8103139f19489,1,2021-03-08_15h16.38.003,GuessTheSound,2020.2.10,Win32,60,,,,,,,,,,,,,,,SoundMST/Printer.wav,1,1,OLD,A,,,2,0,0.45155,0,121,121,121,1,,
,,,,,,,,,,,,,,5ff710f366c8103139f19489,1,2021-03-08_15h16.38.003,GuessTheSound,2020.2.10,Win32,60,,,,,,,,,,,,,,,SoundMST/Camera.wav,1,1,OLD,A,,,1,1,0.229935,0,122,122,122,1,,
,,,,,,,,,,,,,,5ff710f366c8103139f19489,1,2021-03-08_15h16.38.003,GuessTheSound,2020.2.10,Win32,60,,,,,,,,,,,,,,,SoundMST/Droplet_B.wav,1,1,OLD,A,,,1,1,0.23074,0,123,123,123,1,,
,,,,,,,,,,,,,,5ff710f366c8103139f19489,1,2021-03-08_15h16.38.003,GuessTheSound,2020.2.10,Win32,60,,,,,,,,,,,,,,,SoundMST/Steam.wav,1,1,OLD,A,,,2,0,0.934075,0,124,124,124,1,,
,,,,,,,,,,,,,,5ff710f366c8103139f19489,1,2021-03-08_15h16.38.003,GuessTheSound,2020.2.10,Win32,60,,,,,,,,,,,,,,,SoundMST/CarStart_B.wav,2,2,SIMILAR,A,,,1,0,0.21861,0,125,125,125,1,,
,,,,,,,,,,,,,,5ff710f366c8103139f19489,1,2021-03-08_15h16.38.003,GuessTheSound,2020.2.10,Win32,60,,,,,,,,,,,,,,,SoundMST/Donkey.wav,1,1,OLD,A,,,1,1,0.19683,0,126,126,126,1,,
,,,,,,,,,,,,,,5ff710f366c8103139f19489,1,2021-03-08_15h16.38.003,GuessTheSound,2020.2.10,Win32,60,,,,,,,,,,,,,,,SoundMST/Clap_C.wav,2,2,SIMILAR,A,,,2,1,0.273935,0,127,127,127,1,,
,,,,,,,,,,,,,,5ff710f366c8103139f19489,1,2021-03-08_15h16.38.003,GuessTheSound,2020.2.10,Win32,60,,,,,,,,,,,,,,,,,,,,,,,,,,,,,,space,20.44336
