WelcomeContinueKey2.keys,WelcomeContinueKey2.rt,VolumeContinueKey.keys,VolumeContinueKey.rt,ResponseBox.text,trials.thisRepN,trials.thisTrialN,trials.thisN,trials.thisIndex,trials.ran,SoundFiles,Type,participant,session,date,expName,psychopyVersion,OS,frameRate,ExitKey.keys,ExitKey.rt
space,7.517,space,4.081,ice in a cup,0,0,0,57,1,Initial/Repeat/Stir.wav,Repeat,5ab0b347e1546900019b16aa,001,2021-01-01_15h59.14.224,GuessTheSound,2020.2.10,Win32,60,,
,,,,church bell,0,1,1,2,1,Initial/Doubled/Chime_A.wav,Doubled,5ab0b347e1546900019b16aa,001,2021-01-01_15h59.14.224,GuessTheSound,2020.2.10,Win32,60,,
,,,,velcro,0,2,2,95,1,Test/Foils/PaperRip.wav,Extra,5ab0b347e1546900019b16aa,001,2021-01-01_15h59.14.224,GuessTheSound,2020.2.10,Win32,60,,
,,,,scanner,0,3,3,54,1,Initial/Repeat/Printer.wav,Repeat,5ab0b347e1546900019b16aa,001,2021-01-01_15h59.14.224,GuessTheSound,2020.2.10,Win32,60,,
,,,,dog toy,0,4,4,34,1,Initial/NoRepeat/Puff_A.wav,NoRepeat,5ab0b347e1546900019b16aa,001,2021-01-01_15h59.14.224,GuessTheSound,2020.2.10,Win32,60,,
,,,,phone ringging,0,5,5,88,1,Test/Foils/DialTone.wav,Extra,5ab0b347e1546900019b16aa,001,2021-01-01_15h59.14.224,GuessTheSound,2020.2.10,Win32,60,,
,,,,crow,0,6,6,87,1,Initial/Repeat/Crow_B.wav,Extra,5ab0b347e1546900019b16aa,001,2021-01-01_15h59.14.224,GuessTheSound,2020.2.10,Win32,60,,
,,,,coins,0,7,7,4,1,Initial/Doubled/Coin_A.wav,Doubled,5ab0b347e1546900019b16aa,001,2021-01-01_15h59.14.224,GuessTheSound,2020.2.10,Win32,60,,
,,,,cock,0,8,8,96,1,Initial/NoRepeat/Rooster_B.wav,Extra,5ab0b347e1546900019b16aa,001,2021-01-01_15h59.14.224,GuessTheSound,2020.2.10,Win32,60,,
,,,,,0,9,9,16,1,Initial/Doubled/Owl_A.wav,Doubled,5ab0b347e1546900019b16aa,001,2021-01-01_15h59.14.224,GuessTheSound,2020.2.10,Win32,60,,
,,,,engine starting,0,10,10,81,1,Initial/Doubled/CarStart_A.wav,Extra,5ab0b347e1546900019b16aa,001,2021-01-01_15h59.14.224,GuessTheSound,2020.2.10,Win32,60,,
,,,,whistle,0,11,11,50,1,Initial/Repeat/ManWhistle.wav,Repeat,5ab0b347e1546900019b16aa,001,2021-01-01_15h59.14.224,GuessTheSound,2020.2.10,Win32,60,,
,,,,chopping wood,0,12,12,61,1,Test/Foils/Axe.wav,New,5ab0b347e1546900019b16aa,001,2021-01-01_15h59.14.224,GuessTheSound,2020.2.10,Win32,60,,
,,,,,0,13,13,70,1,Test/Foils/Harmonica.wav,New,5ab0b347e1546900019b16aa,001,2021-01-01_15h59.14.224,GuessTheSound,2020.2.10,Win32,60,,
,,,,,0,14,14,80,1,Test/Foils/Camera.wav,Extra,5ab0b347e1546900019b16aa,001,2021-01-01_15h59.14.224,GuessTheSound,2020.2.10,Win32,60,,
,,,,harpa,0,15,15,14,1,Initial/Doubled/Harp_A.wav,Doubled,5ab0b347e1546900019b16aa,001,2021-01-01_15h59.14.224,GuessTheSound,2020.2.10,Win32,60,,
,,,,,0,16,16,22,1,Initial/NoRepeat/Cow.wav,NoRepeat,5ab0b347e1546900019b16aa,001,2021-01-01_15h59.14.224,GuessTheSound,2020.2.10,Win32,60,,
,,,,hearthbeat,0,17,17,71,1,Test/Foils/Heartbeat.wav,New,5ab0b347e1546900019b16aa,001,2021-01-01_15h59.14.224,GuessTheSound,2020.2.10,Win32,60,,
,,,,,0,18,18,41,1,Initial/Repeat/Bat.wav,Repeat,5ab0b347e1546900019b16aa,001,2021-01-01_15h59.14.224,GuessTheSound,2020.2.10,Win32,60,,
,,,,swallow,0,19,19,92,1,Test/Foils/Gulp.wav,Extra,5ab0b347e1546900019b16aa,001,2021-01-01_15h59.14.224,GuessTheSound,2020.2.10,Win32,60,,
,,,,filling a cup,0,20,20,49,1,Initial/Repeat/Pour.wav,Repeat,5ab0b347e1546900019b16aa,001,2021-01-01_15h59.14.224,GuessTheSound,2020.2.10,Win32,60,,
,,,,goat,0,21,21,30,1,Initial/NoRepeat/Goat_B.wav,NoRepeat,5ab0b347e1546900019b16aa,001,2021-01-01_15h59.14.224,GuessTheSound,2020.2.10,Win32,60,,
,,,,a clock,0,22,22,84,1,Initial/Doubled/Clock_A.wav,Extra,5ab0b347e1546900019b16aa,001,2021-01-01_15h59.14.224,GuessTheSound,2020.2.10,Win32,60,,
,,,,duck,0,23,23,90,1,Initial/Doubled/Geese_A.wav,Extra,5ab0b347e1546900019b16aa,001,2021-01-01_15h59.14.224,GuessTheSound,2020.2.10,Win32,60,,
,,,,a fly,0,24,24,32,1,Initial/NoRepeat/Mosquito_B.wav,NoRepeat,5ab0b347e1546900019b16aa,001,2021-01-01_15h59.14.224,GuessTheSound,2020.2.10,Win32,60,,
,,,,,0,25,25,75,1,Test/Foils/Robot.wav,New,5ab0b347e1546900019b16aa,001,2021-01-01_15h59.14.224,GuessTheSound,2020.2.10,Win32,60,,
,,,,vacuum cleaner,0,26,26,13,1,Initial/Doubled/HairDryer_A.wav,Doubled,5ab0b347e1546900019b16aa,001,2021-01-01_15h59.14.224,GuessTheSound,2020.2.10,Win32,60,,
,,,,clown toys,0,27,27,74,1,Test/Foils/PartyHorn.wav,New,5ab0b347e1546900019b16aa,001,2021-01-01_15h59.14.224,GuessTheSound,2020.2.10,Win32,60,,
,,,,bubbles,0,28,28,0,1,Initial/Doubled/Bubbles_A.wav,Doubled,5ab0b347e1546900019b16aa,001,2021-01-01_15h59.14.224,GuessTheSound,2020.2.10,Win32,60,,
,,,,sneezing,0,29,29,56,1,Initial/Repeat/Sneeze_B.wav,Repeat,5ab0b347e1546900019b16aa,001,2021-01-01_15h59.14.224,GuessTheSound,2020.2.10,Win32,60,,
,,,,dunky,0,30,30,68,1,Test/Foils/Donkey.wav,New,5ab0b347e1546900019b16aa,001,2021-01-01_15h59.14.224,GuessTheSound,2020.2.10,Win32,60,,
,,,,saxophone,0,31,31,36,1,Initial/NoRepeat/Sax_A.wav,NoRepeat,5ab0b347e1546900019b16aa,001,2021-01-01_15h59.14.224,GuessTheSound,2020.2.10,Win32,60,,
,,,,gargling,0,32,32,10,1,Initial/Doubled/Gargle_A.wav,Doubled,5ab0b347e1546900019b16aa,001,2021-01-01_15h59.14.224,GuessTheSound,2020.2.10,Win32,60,,
,,,,drinking,0,33,33,97,1,Test/Foils/Slurp.wav,Extra,5ab0b347e1546900019b16aa,001,2021-01-01_15h59.14.224,GuessTheSound,2020.2.10,Win32,60,,
,,,,boiler,0,34,34,73,1,Test/Foils/Kettle.wav,New,5ab0b347e1546900019b16aa,001,2021-01-01_15h59.14.224,GuessTheSound,2020.2.10,Win32,60,,
,,,,chickens,0,35,35,19,1,Initial/Doubled/Turkey_A.wav,Doubled,5ab0b347e1546900019b16aa,001,2021-01-01_15h59.14.224,GuessTheSound,2020.2.10,Win32,60,,
,,,,dog barking,0,36,36,7,1,Initial/Doubled/Dog_A.wav,Doubled,5ab0b347e1546900019b16aa,001,2021-01-01_15h59.14.224,GuessTheSound,2020.2.10,Win32,60,,
,,,,,0,37,37,55,1,Initial/Repeat/Sealion.wav,Repeat,5ab0b347e1546900019b16aa,001,2021-01-01_15h59.14.224,GuessTheSound,2020.2.10,Win32,60,,
,,,,walking on wood floor,0,38,38,29,1,Initial/NoRepeat/Footsteps_B.wav,NoRepeat,5ab0b347e1546900019b16aa,001,2021-01-01_15h59.14.224,GuessTheSound,2020.2.10,Win32,60,,
,,,,piano,0,39,39,9,1,Initial/Doubled/Piano_A.wav,Doubled,5ab0b347e1546900019b16aa,001,2021-01-01_15h59.14.224,GuessTheSound,2020.2.10,Win32,60,,
,,,,chewing,0,40,40,83,1,Initial/Doubled/Chomp_A.wav,Extra,5ab0b347e1546900019b16aa,001,2021-01-01_15h59.14.224,GuessTheSound,2020.2.10,Win32,60,,
,,,,ocean,0,41,41,18,1,Initial/Doubled/Surf_A.wav,Doubled,5ab0b347e1546900019b16aa,001,2021-01-01_15h59.14.224,GuessTheSound,2020.2.10,Win32,60,,
,,,,laughing,0,42,42,15,1,Initial/Doubled/Laugh_A.wav,Doubled,5ab0b347e1546900019b16aa,001,2021-01-01_15h59.14.224,GuessTheSound,2020.2.10,Win32,60,,
,,,,birds whistling,0,43,43,62,1,Test/Foils/Bird.wav,New,5ab0b347e1546900019b16aa,001,2021-01-01_15h59.14.224,GuessTheSound,2020.2.10,Win32,60,,
,,,,christmas ,0,44,44,37,1,Initial/NoRepeat/Sleighbells_B.wav,NoRepeat,5ab0b347e1546900019b16aa,001,2021-01-01_15h59.14.224,GuessTheSound,2020.2.10,Win32,60,,
,,,,running water,0,45,45,27,1,Initial/NoRepeat/Faucet_A.wav,NoRepeat,5ab0b347e1546900019b16aa,001,2021-01-01_15h59.14.224,GuessTheSound,2020.2.10,Win32,60,,
,,,,fireworks,0,46,46,28,1,Initial/NoRepeat/Fireworks.wav,NoRepeat,5ab0b347e1546900019b16aa,001,2021-01-01_15h59.14.224,GuessTheSound,2020.2.10,Win32,60,,
,,,,,0,47,47,43,1,Initial/Repeat/Cello.wav,Repeat,5ab0b347e1546900019b16aa,001,2021-01-01_15h59.14.224,GuessTheSound,2020.2.10,Win32,60,,
,,,,hornpipe,0,48,48,42,1,Initial/Repeat/Bagpipe.wav,Repeat,5ab0b347e1546900019b16aa,001,2021-01-01_15h59.14.224,GuessTheSound,2020.2.10,Win32,60,,
,,,,eagle,0,49,49,25,1,Initial/NoRepeat/Eagle_B.wav,NoRepeat,5ab0b347e1546900019b16aa,001,2021-01-01_15h59.14.224,GuessTheSound,2020.2.10,Win32,60,,
,,,,,0,50,50,78,1,Test/Foils/Cards.wav,New,5ab0b347e1546900019b16aa,001,2021-01-01_15h59.14.224,GuessTheSound,2020.2.10,Win32,60,,
,,,,snoring,0,51,51,38,1,Initial/NoRepeat/Snore_B.wav,NoRepeat,5ab0b347e1546900019b16aa,001,2021-01-01_15h59.14.224,GuessTheSound,2020.2.10,Win32,60,,
,,,,horse ,0,52,52,69,1,Test/Foils/Gallop.wav,New,5ab0b347e1546900019b16aa,001,2021-01-01_15h59.14.224,GuessTheSound,2020.2.10,Win32,60,,
,,,,plane ,0,53,53,40,1,Initial/Repeat/Airplane_B.wav,Repeat,5ab0b347e1546900019b16aa,001,2021-01-01_15h59.14.224,GuessTheSound,2020.2.10,Win32,60,,
,,,,watch,0,54,54,6,1,Initial/Doubled/Cuckoo_A.wav,Doubled,5ab0b347e1546900019b16aa,001,2021-01-01_15h59.14.224,GuessTheSound,2020.2.10,Win32,60,,
,,,,cat,0,55,55,82,1,Initial/Doubled/Cat_A.wav,Extra,5ab0b347e1546900019b16aa,001,2021-01-01_15h59.14.224,GuessTheSound,2020.2.10,Win32,60,,
,,,,ambulance,0,56,56,11,1,Initial/Doubled/Siren_A.wav,Doubled,5ab0b347e1546900019b16aa,001,2021-01-01_15h59.14.224,GuessTheSound,2020.2.10,Win32,60,,
,,,,train,0,57,57,98,1,Initial/Doubled/Train_A.wav,Extra,5ab0b347e1546900019b16aa,001,2021-01-01_15h59.14.224,GuessTheSound,2020.2.10,Win32,60,,
,,,,coughing,0,58,58,85,1,Initial/Doubled/Cough_A.wav,Extra,5ab0b347e1546900019b16aa,001,2021-01-01_15h59.14.224,GuessTheSound,2020.2.10,Win32,60,,
,,,,,0,59,59,58,1,Initial/Repeat/Trumpet_B.wav,Repeat,5ab0b347e1546900019b16aa,001,2021-01-01_15h59.14.224,GuessTheSound,2020.2.10,Win32,60,,
,,,,,,,,,,,,5ab0b347e1546900019b16aa,001,2021-01-01_15h59.14.224,GuessTheSound,2020.2.10,Win32,60,space,11.857
