WelcomeContinueKey2.keys,WelcomeContinueKey2.rt,VolumeContinueKey.keys,VolumeContinueKey.rt,ResponseBox.text,trials.thisRepN,trials.thisTrialN,trials.thisN,trials.thisIndex,trials.ran,SoundFiles,Type,participant,session,date,expName,psychopyVersion,OS,frameRate,ExitKey.keys,ExitKey.rt
space,16.347695,space,7.31097,TYPING,0,0,0,77,1,Test/Foils/Typing.wav,New,5f21bb41bfbf3a5e4cae985c,001,2021-01-04_22h27.47.335,GuessTheSound,2020.2.10,Win32,60,,
,,,,,0,1,1,47,1,Initial/Repeat/Cup.wav,Repeat,5f21bb41bfbf3a5e4cae985c,001,2021-01-04_22h27.47.335,GuessTheSound,2020.2.10,Win32,60,,
,,,,FLOWING WATER,0,2,2,27,1,Initial/NoRepeat/Faucet_A.wav,NoRepeat,5f21bb41bfbf3a5e4cae985c,001,2021-01-04_22h27.47.335,GuessTheSound,2020.2.10,Win32,60,,
,,,,BAGPIPES,0,3,3,42,1,Initial/Repeat/Bagpipe.wav,Repeat,5f21bb41bfbf3a5e4cae985c,001,2021-01-04_22h27.47.335,GuessTheSound,2020.2.10,Win32,60,,
,,,,PING PONG GAME,0,4,4,53,1,Initial/Repeat/Pingpong.wav,Repeat,5f21bb41bfbf3a5e4cae985c,001,2021-01-04_22h27.47.335,GuessTheSound,2020.2.10,Win32,60,,
,,,,HOWLING WOLF ,0,5,5,48,1,Initial/Repeat/Howl.wav,Repeat,5f21bb41bfbf3a5e4cae985c,001,2021-01-04_22h27.47.335,GuessTheSound,2020.2.10,Win32,60,,
,,,,ENGINE REVVING,0,6,6,40,1,Initial/Repeat/Airplane_B.wav,Repeat,5f21bb41bfbf3a5e4cae985c,001,2021-01-04_22h27.47.335,GuessTheSound,2020.2.10,Win32,60,,
,,,,PST,0,7,7,59,1,Initial/Repeat/Whistle_A.wav,Repeat,5f21bb41bfbf3a5e4cae985c,001,2021-01-04_22h27.47.335,GuessTheSound,2020.2.10,Win32,60,,
,,,,MEW,0,8,8,32,1,Initial/NoRepeat/Mosquito_B.wav,NoRepeat,5f21bb41bfbf3a5e4cae985c,001,2021-01-04_22h27.47.335,GuessTheSound,2020.2.10,Win32,60,,
,,,,AX CUTTING,0,9,9,61,1,Test/Foils/Axe.wav,New,5f21bb41bfbf3a5e4cae985c,001,2021-01-04_22h27.47.335,GuessTheSound,2020.2.10,Win32,60,,
,,,,CLAPS,0,10,10,3,1,Initial/Doubled/Clap_A.wav,Doubled,5f21bb41bfbf3a5e4cae985c,001,2021-01-04_22h27.47.335,GuessTheSound,2020.2.10,Win32,60,,
,,,,MOOO,0,11,11,22,1,Initial/NoRepeat/Cow.wav,NoRepeat,5f21bb41bfbf3a5e4cae985c,001,2021-01-04_22h27.47.335,GuessTheSound,2020.2.10,Win32,60,,
,,,,POTATO CRUNCH,0,12,12,83,1,Initial/Doubled/Chomp_A.wav,Extra,5f21bb41bfbf3a5e4cae985c,001,2021-01-04_22h27.47.335,GuessTheSound,2020.2.10,Win32,60,,
,,,,CRICKET,0,13,13,5,1,Initial/Doubled/Cricket_A.wav,Doubled,5f21bb41bfbf3a5e4cae985c,001,2021-01-04_22h27.47.335,GuessTheSound,2020.2.10,Win32,60,,
,,,,MEOW,0,14,14,82,1,Initial/Doubled/Cat_A.wav,Extra,5f21bb41bfbf3a5e4cae985c,001,2021-01-04_22h27.47.335,GuessTheSound,2020.2.10,Win32,60,,
,,,,POURING SODA,0,15,15,49,1,Initial/Repeat/Pour.wav,Repeat,5f21bb41bfbf3a5e4cae985c,001,2021-01-04_22h27.47.335,GuessTheSound,2020.2.10,Win32,60,,
,,,,KNOCKING ,0,16,16,31,1,Initial/NoRepeat/Hammer_A.wav,NoRepeat,5f21bb41bfbf3a5e4cae985c,001,2021-01-04_22h27.47.335,GuessTheSound,2020.2.10,Win32,60,,
,,,,BELLS,0,17,17,33,1,Initial/NoRepeat/MusicBox_A.wav,NoRepeat,5f21bb41bfbf3a5e4cae985c,001,2021-01-04_22h27.47.335,GuessTheSound,2020.2.10,Win32,60,,
,,,,WIND,0,18,18,73,1,Test/Foils/Kettle.wav,New,5f21bb41bfbf3a5e4cae985c,001,2021-01-04_22h27.47.335,GuessTheSound,2020.2.10,Win32,60,,
,,,,SPRING,0,19,19,51,1,Initial/Repeat/MetalBang.wav,Repeat,5f21bb41bfbf3a5e4cae985c,001,2021-01-04_22h27.47.335,GuessTheSound,2020.2.10,Win32,60,,
,,,,GUITAR STRINGS,0,20,20,91,1,Initial/Doubled/Guitar_A.wav,Extra,5f21bb41bfbf3a5e4cae985c,001,2021-01-04_22h27.47.335,GuessTheSound,2020.2.10,Win32,60,,
,,,,SUBWAY,0,21,21,97,1,Test/Foils/Slurp.wav,Extra,5f21bb41bfbf3a5e4cae985c,001,2021-01-04_22h27.47.335,GuessTheSound,2020.2.10,Win32,60,,
,,,,WIND CHIMES,0,22,22,17,1,Initial/Doubled/Windchime_A.wav,Doubled,5f21bb41bfbf3a5e4cae985c,001,2021-01-04_22h27.47.335,GuessTheSound,2020.2.10,Win32,60,,
,,,,LAMB,0,23,23,30,1,Initial/NoRepeat/Goat_B.wav,NoRepeat,5f21bb41bfbf3a5e4cae985c,001,2021-01-04_22h27.47.335,GuessTheSound,2020.2.10,Win32,60,,
,,,,PLATO CRASH,0,24,24,45,1,Initial/Repeat/Cymbal_A.wav,Repeat,5f21bb41bfbf3a5e4cae985c,001,2021-01-04_22h27.47.335,GuessTheSound,2020.2.10,Win32,60,,
,,,,CHURCH BELL,0,25,25,2,1,Initial/Doubled/Chime_A.wav,Doubled,5f21bb41bfbf3a5e4cae985c,001,2021-01-04_22h27.47.335,GuessTheSound,2020.2.10,Win32,60,,
,,,,CHAINSAW,0,26,26,21,1,Initial/NoRepeat/Chainsaw_A.wav,NoRepeat,5f21bb41bfbf3a5e4cae985c,001,2021-01-04_22h27.47.335,GuessTheSound,2020.2.10,Win32,60,,
,,,,AMBULANCE,0,27,27,11,1,Initial/Doubled/Siren_A.wav,Doubled,5f21bb41bfbf3a5e4cae985c,001,2021-01-04_22h27.47.335,GuessTheSound,2020.2.10,Win32,60,,
,,,,GARGLE,0,28,28,10,1,Initial/Doubled/Gargle_A.wav,Doubled,5f21bb41bfbf3a5e4cae985c,001,2021-01-04_22h27.47.335,GuessTheSound,2020.2.10,Win32,60,,
,,,,BOWLING PINS,0,29,29,63,1,Test/Foils/Bowlingpins.wav,New,5f21bb41bfbf3a5e4cae985c,001,2021-01-04_22h27.47.335,GuessTheSound,2020.2.10,Win32,60,,
,,,,PIANO,0,30,30,14,1,Initial/Doubled/Harp_A.wav,Doubled,5f21bb41bfbf3a5e4cae985c,001,2021-01-04_22h27.47.335,GuessTheSound,2020.2.10,Win32,60,,
,,,,BUBBLE,0,31,31,0,1,Initial/Doubled/Bubbles_A.wav,Doubled,5f21bb41bfbf3a5e4cae985c,001,2021-01-04_22h27.47.335,GuessTheSound,2020.2.10,Win32,60,,
,,,,DRUMS,0,32,32,46,1,Initial/Repeat/Drum_B.wav,Repeat,5f21bb41bfbf3a5e4cae985c,001,2021-01-04_22h27.47.335,GuessTheSound,2020.2.10,Win32,60,,
,,,,WATER DROPS,0,33,33,24,1,Initial/NoRepeat/Droplet_B.wav,NoRepeat,5f21bb41bfbf3a5e4cae985c,001,2021-01-04_22h27.47.335,GuessTheSound,2020.2.10,Win32,60,,
,,,,DOOR BELL,0,34,34,8,1,Initial/Doubled/Doorchime_A.wav,Doubled,5f21bb41bfbf3a5e4cae985c,001,2021-01-04_22h27.47.335,GuessTheSound,2020.2.10,Win32,60,,
,,,,THUNDER,0,35,35,39,1,Initial/NoRepeat/Thunder_A.wav,NoRepeat,5f21bb41bfbf3a5e4cae985c,001,2021-01-04_22h27.47.335,GuessTheSound,2020.2.10,Win32,60,,
,,,,COINS,0,36,36,4,1,Initial/Doubled/Coin_A.wav,Doubled,5f21bb41bfbf3a5e4cae985c,001,2021-01-04_22h27.47.335,GuessTheSound,2020.2.10,Win32,60,,
,,,,VIBRATING CELLPHONE,0,37,37,66,1,Test/Foils/Buzz.wav,New,5f21bb41bfbf3a5e4cae985c,001,2021-01-04_22h27.47.335,GuessTheSound,2020.2.10,Win32,60,,
,,,,STEPS,0,38,38,29,1,Initial/NoRepeat/Footsteps_B.wav,NoRepeat,5f21bb41bfbf3a5e4cae985c,001,2021-01-04_22h27.47.335,GuessTheSound,2020.2.10,Win32,60,,
,,,,COPYING MACHINE,0,39,39,54,1,Initial/Repeat/Printer.wav,Repeat,5f21bb41bfbf3a5e4cae985c,001,2021-01-04_22h27.47.335,GuessTheSound,2020.2.10,Win32,60,,
,,,,BRAY,0,40,40,68,1,Test/Foils/Donkey.wav,New,5f21bb41bfbf3a5e4cae985c,001,2021-01-04_22h27.47.335,GuessTheSound,2020.2.10,Win32,60,,
,,,,ELEPHANT TRUMPET,0,41,41,26,1,Initial/NoRepeat/Elephant_A.wav,NoRepeat,5f21bb41bfbf3a5e4cae985c,001,2021-01-04_22h27.47.335,GuessTheSound,2020.2.10,Win32,60,,
,,,,,0,42,42,90,1,Initial/Doubled/Geese_A.wav,Extra,5f21bb41bfbf3a5e4cae985c,001,2021-01-04_22h27.47.335,GuessTheSound,2020.2.10,Win32,60,,
,,,,MARBLES,0,43,43,57,1,Initial/Repeat/Stir.wav,Repeat,5f21bb41bfbf3a5e4cae985c,001,2021-01-04_22h27.47.335,GuessTheSound,2020.2.10,Win32,60,,
,,,,WC FLUSHING,0,44,44,23,1,Initial/NoRepeat/Toilet_B.wav,NoRepeat,5f21bb41bfbf3a5e4cae985c,001,2021-01-04_22h27.47.335,GuessTheSound,2020.2.10,Win32,60,,
,,,,LAUGHS,0,45,45,15,1,Initial/Doubled/Laugh_A.wav,Doubled,5f21bb41bfbf3a5e4cae985c,001,2021-01-04_22h27.47.335,GuessTheSound,2020.2.10,Win32,60,,
,,,,ALARM SOUND,0,46,46,75,1,Test/Foils/Robot.wav,New,5f21bb41bfbf3a5e4cae985c,001,2021-01-04_22h27.47.335,GuessTheSound,2020.2.10,Win32,60,,
,,,,RELAXING PIANO,0,47,47,9,1,Initial/Doubled/Piano_A.wav,Doubled,5f21bb41bfbf3a5e4cae985c,001,2021-01-04_22h27.47.335,GuessTheSound,2020.2.10,Win32,60,,
,,,,SQUEAK,0,48,48,86,1,Initial/Doubled/Creak.wav,Extra,5f21bb41bfbf3a5e4cae985c,001,2021-01-04_22h27.47.335,GuessTheSound,2020.2.10,Win32,60,,
,,,,FARTS,0,49,49,78,1,Test/Foils/Cards.wav,New,5f21bb41bfbf3a5e4cae985c,001,2021-01-04_22h27.47.335,GuessTheSound,2020.2.10,Win32,60,,
,,,,SCRAPING PAPERS,0,50,50,67,1,Test/Foils/Curtain.wav,New,5f21bb41bfbf3a5e4cae985c,001,2021-01-04_22h27.47.335,GuessTheSound,2020.2.10,Win32,60,,
,,,,BIRD WHISTLE,0,51,51,62,1,Test/Foils/Bird.wav,New,5f21bb41bfbf3a5e4cae985c,001,2021-01-04_22h27.47.335,GuessTheSound,2020.2.10,Win32,60,,
,,,,PULL,0,52,52,95,1,Test/Foils/PaperRip.wav,Extra,5f21bb41bfbf3a5e4cae985c,001,2021-01-04_22h27.47.335,GuessTheSound,2020.2.10,Win32,60,,
,,,,SEALS BARK,0,53,53,55,1,Initial/Repeat/Sealion.wav,Repeat,5f21bb41bfbf3a5e4cae985c,001,2021-01-04_22h27.47.335,GuessTheSound,2020.2.10,Win32,60,,
,,,,COUGH,0,54,54,85,1,Initial/Doubled/Cough_A.wav,Extra,5f21bb41bfbf3a5e4cae985c,001,2021-01-04_22h27.47.335,GuessTheSound,2020.2.10,Win32,60,,
,,,,SHORT CIRCUIT,0,55,55,64,1,Test/Foils/Brushing.wav,New,5f21bb41bfbf3a5e4cae985c,001,2021-01-04_22h27.47.335,GuessTheSound,2020.2.10,Win32,60,,
,,,,,0,56,56,84,1,Initial/Doubled/Clock_A.wav,Extra,5f21bb41bfbf3a5e4cae985c,001,2021-01-04_22h27.47.335,GuessTheSound,2020.2.10,Win32,60,,
,,,,HORN,0,57,57,60,1,Test/Foils/Airhorn.wav,New,5f21bb41bfbf3a5e4cae985c,001,2021-01-04_22h27.47.335,GuessTheSound,2020.2.10,Win32,60,,
,,,,WIND,0,58,58,79,1,Test/Foils/Wind_B.wav,New,5f21bb41bfbf3a5e4cae985c,001,2021-01-04_22h27.47.335,GuessTheSound,2020.2.10,Win32,60,,
,,,,OLD RING TONE,0,59,59,52,1,Initial/Repeat/Phone_A.wav,Repeat,5f21bb41bfbf3a5e4cae985c,001,2021-01-04_22h27.47.335,GuessTheSound,2020.2.10,Win32,60,,
,,,,,,,,,,,,5f21bb41bfbf3a5e4cae985c,001,2021-01-04_22h27.47.335,GuessTheSound,2020.2.10,Win32,60,space,36.95903
