VolumeContinueKey.keys,VolumeContinueKey.rt,HeadphoneContinueKey.keys,HeadphoneContinueKey.rt,CheckResp.keys,CheckResp.corr,CheckResp.rt,trials_2.thisRepN,trials_2.thisTrialN,trials_2.thisN,trials_2.thisIndex,trials_2.ran,File,Correct,participant,session,date,expName,psychopyVersion,OS,frameRate,ContinueResp.keys,ContinueResp.rt,Wel2ContinueKey.keys,Wel2ContinueKey.rt,WelcomeContinueKey2.keys,WelcomeContinueKey2.rt,Practice_resp.keys,Practice_resp.corr,Practice_resp.rt,PracticeTrials.thisRepN,PracticeTrials.thisTrialN,PracticeTrials.thisN,PracticeTrials.thisIndex,PracticeTrials.ran,SoundFiles3,StartTast.keys,StartTast.rt,MSTResp.keys,MSTResp.corr,MSTResp.rt,trials.thisRepN,trials.thisTrialN,trials.thisN,trials.thisIndex,trials.ran,ExitKey.keys,ExitKey.rt
space,5.747705,space,17.499215,2,1,2.30954,0,0,0,3,1,Headphone/t2_2.wav,2,5fbdc24c6d7411225e16b180,001,2021-01-24_09h57.44.803,GuessTheSound,2020.2.10,MacIntel,60,,,,,,,,,,,,,,,,,,,,,,,,,,,
,,,,1,1,1.3084,0,1,1,0,1,Headphone/t1_1.wav,1,5fbdc24c6d7411225e16b180,001,2021-01-24_09h57.44.803,GuessTheSound,2020.2.10,MacIntel,60,,,,,,,,,,,,,,,,,,,,,,,,,,,
,,,,2,1,1.03535,0,2,2,2,1,Headphone/t2_1.wav,2,5fbdc24c6d7411225e16b180,001,2021-01-24_09h57.44.803,GuessTheSound,2020.2.10,MacIntel,60,,,,,,,,,,,,,,,,,,,,,,,,,,,
,,,,1,1,0.53663,0,3,3,1,1,Headphone/t1_2.wav,1,5fbdc24c6d7411225e16b180,001,2021-01-24_09h57.44.803,GuessTheSound,2020.2.10,MacIntel,60,,,,,,,,,,,,,,,,,,,,,,,,,,,
,,,,3,1,0.57654,0,4,4,4,1,Headphone/t3_1.wav,3,5fbdc24c6d7411225e16b180,001,2021-01-24_09h57.44.803,GuessTheSound,2020.2.10,MacIntel,60,,,,,,,,,,,,,,,,,,,,,,,,,,,
,,,,3,1,0.51775,0,5,5,5,1,Headphone/t3_2.wav,3,5fbdc24c6d7411225e16b180,001,2021-01-24_09h57.44.803,GuessTheSound,2020.2.10,MacIntel,60,,,,,,,,,,,,,,,,,,,,,,,,,,,
,,,,,,,,,,,,,3,5fbdc24c6d7411225e16b180,001,2021-01-24_09h57.44.803,GuessTheSound,2020.2.10,MacIntel,60,space,16.698445,space,25.467245,space,4.18997,3,1,5.021675,0,0,0,0,1,Practice/Seagull_A.wav,,,,,,,,,,,,
,,,,,,,,,,,,,3,5fbdc24c6d7411225e16b180,001,2021-01-24_09h57.44.803,GuessTheSound,2020.2.10,MacIntel,60,,,,,,,3,1,1.707435,0,1,1,1,1,Practice/Skid_B.wav,,,,,,,,,,,,
,,,,,,,,,,,,,1,5fbdc24c6d7411225e16b180,001,2021-01-24_09h57.44.803,GuessTheSound,2020.2.10,MacIntel,60,,,,,,,1,1,1.84815,0,2,2,2,1,Practice/Seagull_A.wav,,,,,,,,,,,,
,,,,,,,,,,,,,3,5fbdc24c6d7411225e16b180,001,2021-01-24_09h57.44.803,GuessTheSound,2020.2.10,MacIntel,60,,,,,,,3,1,0.68188,0,3,3,3,1,Practice/Gargle_A.wav,,,,,,,,,,,,
,,,,,,,,,,,,,2,5fbdc24c6d7411225e16b180,001,2021-01-24_09h57.44.803,GuessTheSound,2020.2.10,MacIntel,60,,,,,,,2,1,1.11985,0,4,4,4,1,Practice/Gargle_B.wav,,,,,,,,,,,,
,,,,,,,,,,,,,3,5fbdc24c6d7411225e16b180,001,2021-01-24_09h57.44.803,GuessTheSound,2020.2.10,MacIntel,60,,,,,,,,,,,,,,,Initial/NoRepeat/Elephant_A.wav,space,9.982215,3,1,2.58334,0,0,0,0,1,,
,,,,,,,,,,,,,3,5fbdc24c6d7411225e16b180,001,2021-01-24_09h57.44.803,GuessTheSound,2020.2.10,MacIntel,60,,,,,,,,,,,,,,,Initial/Doubled/Coin_A.wav,,,3,1,1.220445,0,1,1,1,1,,
,,,,,,,,,,,,,3,5fbdc24c6d7411225e16b180,001,2021-01-24_09h57.44.803,GuessTheSound,2020.2.10,MacIntel,60,,,,,,,,,,,,,,,Initial/Doubled/Cuckoo_A.wav,,,3,1,1.183665,0,2,2,2,1,,
,,,,,,,,,,,,,3,5fbdc24c6d7411225e16b180,001,2021-01-24_09h57.44.803,GuessTheSound,2020.2.10,MacIntel,60,,,,,,,,,,,,,,,Initial/Doubled/Piano_A.wav,,,3,1,0.702095,0,3,3,3,1,,
,,,,,,,,,,,,,3,5fbdc24c6d7411225e16b180,001,2021-01-24_09h57.44.803,GuessTheSound,2020.2.10,MacIntel,60,,,,,,,,,,,,,,,Initial/Doubled/Siren_A.wav,,,2,0,4.758355,0,4,4,4,1,,
,,,,,,,,,,,,,3,5fbdc24c6d7411225e16b180,001,2021-01-24_09h57.44.803,GuessTheSound,2020.2.10,MacIntel,60,,,,,,,,,,,,,,,Test/Foils/Bird.wav,,,3,1,1.235865,0,5,5,5,1,,
,,,,,,,,,,,,,3,5fbdc24c6d7411225e16b180,001,2021-01-24_09h57.44.803,GuessTheSound,2020.2.10,MacIntel,60,,,,,,,,,,,,,,,Initial/Doubled/Cat_A.wav,,,3,1,0.482585,0,6,6,6,1,,
,,,,,,,,,,,,,3,5fbdc24c6d7411225e16b180,001,2021-01-24_09h57.44.803,GuessTheSound,2020.2.10,MacIntel,60,,,,,,,,,,,,,,,Initial/NoRepeat/Baby_B.wav,,,3,1,1.560185,0,7,7,7,1,,
,,,,,,,,,,,,,3,5fbdc24c6d7411225e16b180,001,2021-01-24_09h57.44.803,GuessTheSound,2020.2.10,MacIntel,60,,,,,,,,,,,,,,,Initial/Doubled/Writing_A.wav,,,3,1,0.377415,0,8,8,8,1,,
,,,,,,,,,,,,,2,5fbdc24c6d7411225e16b180,001,2021-01-24_09h57.44.803,GuessTheSound,2020.2.10,MacIntel,60,,,,,,,,,,,,,,,Piano_B.wav,,,3,0,0.452995,0,9,9,9,1,,
,,,,,,,,,,,,,3,5fbdc24c6d7411225e16b180,001,2021-01-24_09h57.44.803,GuessTheSound,2020.2.10,MacIntel,60,,,,,,,,,,,,,,,Initial/NoRepeat/Sleighbells_B.wav,,,1,0,4.85443,0,10,10,10,1,,
,,,,,,,,,,,,,3,5fbdc24c6d7411225e16b180,001,2021-01-24_09h57.44.803,GuessTheSound,2020.2.10,MacIntel,60,,,,,,,,,,,,,,,Test/Foils/Typing.wav,,,3,1,0.475985,0,11,11,11,1,,
,,,,,,,,,,,,,3,5fbdc24c6d7411225e16b180,001,2021-01-24_09h57.44.803,GuessTheSound,2020.2.10,MacIntel,60,,,,,,,,,,,,,,,Initial/Repeat/Pour.wav,,,3,1,3.96121,0,12,12,12,1,,
,,,,,,,,,,,,,3,5fbdc24c6d7411225e16b180,001,2021-01-24_09h57.44.803,GuessTheSound,2020.2.10,MacIntel,60,,,,,,,,,,,,,,,Initial/Doubled/HairDryer_A.wav,,,3,1,0.902525,0,13,13,13,1,,
,,,,,,,,,,,,,1,5fbdc24c6d7411225e16b180,001,2021-01-24_09h57.44.803,GuessTheSound,2020.2.10,MacIntel,60,,,,,,,,,,,,,,,Initial/Doubled/Cuckoo_A.wav,,,1,1,1.135415,0,14,14,14,1,,
,,,,,,,,,,,,,3,5fbdc24c6d7411225e16b180,001,2021-01-24_09h57.44.803,GuessTheSound,2020.2.10,MacIntel,60,,,,,,,,,,,,,,,Initial/Doubled/Chime_A.wav,,,3,1,0.365855,0,15,15,15,1,,
,,,,,,,,,,,,,3,5fbdc24c6d7411225e16b180,001,2021-01-24_09h57.44.803,GuessTheSound,2020.2.10,MacIntel,60,,,,,,,,,,,,,,,Initial/NoRepeat/Fireworks.wav,,,3,1,0.321705,0,16,16,16,1,,
,,,,,,,,,,,,,2,5fbdc24c6d7411225e16b180,001,2021-01-24_09h57.44.803,GuessTheSound,2020.2.10,MacIntel,60,,,,,,,,,,,,,,,Baby_A.wav,,,2,1,0.406715,0,17,17,17,1,,
,,,,,,,,,,,,,3,5fbdc24c6d7411225e16b180,001,2021-01-24_09h57.44.803,GuessTheSound,2020.2.10,MacIntel,60,,,,,,,,,,,,,,,Test/Foils/DialTone.wav,,,3,1,0.30211,0,18,18,18,1,,
,,,,,,,,,,,,,2,5fbdc24c6d7411225e16b180,001,2021-01-24_09h57.44.803,GuessTheSound,2020.2.10,MacIntel,60,,,,,,,,,,,,,,,Siren_B.wav,,,3,0,0.369995,0,19,19,19,1,,
,,,,,,,,,,,,,3,5fbdc24c6d7411225e16b180,001,2021-01-24_09h57.44.803,GuessTheSound,2020.2.10,MacIntel,60,,,,,,,,,,,,,,,Initial/Repeat/Sneeze_B.wav,,,3,1,0.367615,0,20,20,20,1,,
,,,,,,,,,,,,,2,5fbdc24c6d7411225e16b180,001,2021-01-24_09h57.44.803,GuessTheSound,2020.2.10,MacIntel,60,,,,,,,,,,,,,,,Bird_C.wav,,,3,0,0.382735,0,21,21,21,1,,
,,,,,,,,,,,,,2,5fbdc24c6d7411225e16b180,001,2021-01-24_09h57.44.803,GuessTheSound,2020.2.10,MacIntel,60,,,,,,,,,,,,,,,Pour_D.wav,,,3,0,0.56832,0,22,22,22,1,,
,,,,,,,,,,,,,3,5fbdc24c6d7411225e16b180,001,2021-01-24_09h57.44.803,GuessTheSound,2020.2.10,MacIntel,60,,,,,,,,,,,,,,,Test/Foils/Camera.wav,,,3,1,0.32019,0,23,23,23,1,,
,,,,,,,,,,,,,1,5fbdc24c6d7411225e16b180,001,2021-01-24_09h57.44.803,GuessTheSound,2020.2.10,MacIntel,60,,,,,,,,,,,,,,,Initial/Doubled/Writing_A.wav,,,2,0,2.367455,0,24,24,24,1,,
,,,,,,,,,,,,,1,5fbdc24c6d7411225e16b180,001,2021-01-24_09h57.44.803,GuessTheSound,2020.2.10,MacIntel,60,,,,,,,,,,,,,,,Test/Foils/Typing.wav,,,2,0,0.46923,0,25,25,25,1,,
,,,,,,,,,,,,,3,5fbdc24c6d7411225e16b180,001,2021-01-24_09h57.44.803,GuessTheSound,2020.2.10,MacIntel,60,,,,,,,,,,,,,,,Initial/NoRepeat/Snore_B.wav,,,3,1,0.43441,0,26,26,26,1,,
,,,,,,,,,,,,,2,5fbdc24c6d7411225e16b180,001,2021-01-24_09h57.44.803,GuessTheSound,2020.2.10,MacIntel,60,,,,,,,,,,,,,,,Baby_C.wav,,,3,0,0.408825,0,27,27,27,1,,
,,,,,,,,,,,,,2,5fbdc24c6d7411225e16b180,001,2021-01-24_09h57.44.803,GuessTheSound,2020.2.10,MacIntel,60,,,,,,,,,,,,,,,Siren_C.wav,,,2,1,1.9425,0,28,28,28,1,,
,,,,,,,,,,,,,1,5fbdc24c6d7411225e16b180,001,2021-01-24_09h57.44.803,GuessTheSound,2020.2.10,MacIntel,60,,,,,,,,,,,,,,,Initial/Doubled/Chime_A.wav,,,1,1,0.3339,0,29,29,29,1,,
,,,,,,,,,,,,,2,5fbdc24c6d7411225e16b180,001,2021-01-24_09h57.44.803,GuessTheSound,2020.2.10,MacIntel,60,,,,,,,,,,,,,,,Piano_C.wav,,,2,1,1.48226,0,30,30,30,1,,
,,,,,,,,,,,,,1,5fbdc24c6d7411225e16b180,001,2021-01-24_09h57.44.803,GuessTheSound,2020.2.10,MacIntel,60,,,,,,,,,,,,,,,Initial/NoRepeat/Fireworks.wav,,,1,1,0.41803,0,31,31,31,1,,
,,,,,,,,,,,,,2,5fbdc24c6d7411225e16b180,001,2021-01-24_09h57.44.803,GuessTheSound,2020.2.10,MacIntel,60,,,,,,,,,,,,,,,Pour_C.wav,,,2,1,0.753435,0,32,32,32,1,,
,,,,,,,,,,,,,2,5fbdc24c6d7411225e16b180,001,2021-01-24_09h57.44.803,GuessTheSound,2020.2.10,MacIntel,60,,,,,,,,,,,,,,,Bird_D.wav,,,2,1,0.366505,0,33,33,33,1,,
,,,,,,,,,,,,,3,5fbdc24c6d7411225e16b180,001,2021-01-24_09h57.44.803,GuessTheSound,2020.2.10,MacIntel,60,,,,,,,,,,,,,,,Initial/Repeat/Airplane_B.wav,,,3,1,0.34921,0,34,34,34,1,,
,,,,,,,,,,,,,3,5fbdc24c6d7411225e16b180,001,2021-01-24_09h57.44.803,GuessTheSound,2020.2.10,MacIntel,60,,,,,,,,,,,,,,,Initial/Repeat/Buzz.wav,,,3,1,0.319505,0,35,35,35,1,,
,,,,,,,,,,,,,3,5fbdc24c6d7411225e16b180,001,2021-01-24_09h57.44.803,GuessTheSound,2020.2.10,MacIntel,60,,,,,,,,,,,,,,,Test/Foils/Donkey.wav,,,3,1,0.3346,0,36,36,36,1,,
,,,,,,,,,,,,,1,5fbdc24c6d7411225e16b180,001,2021-01-24_09h57.44.803,GuessTheSound,2020.2.10,MacIntel,60,,,,,,,,,,,,,,,Initial/Doubled/Cuckoo_A.wav,,,1,1,0.702005,0,37,37,37,1,,
,,,,,,,,,,,,,3,5fbdc24c6d7411225e16b180,001,2021-01-24_09h57.44.803,GuessTheSound,2020.2.10,MacIntel,60,,,,,,,,,,,,,,,Initial/Doubled/Chicken_A.wav,,,3,1,0.3564,0,38,38,38,1,,
,,,,,,,,,,,,,3,5fbdc24c6d7411225e16b180,001,2021-01-24_09h57.44.803,GuessTheSound,2020.2.10,MacIntel,60,,,,,,,,,,,,,,,Initial/Doubled/Laugh_A.wav,,,3,1,0.34139,0,39,39,39,1,,
,,,,,,,,,,,,,1,5fbdc24c6d7411225e16b180,001,2021-01-24_09h57.44.803,GuessTheSound,2020.2.10,MacIntel,60,,,,,,,,,,,,,,,Test/Foils/Typing.wav,,,1,1,0.37433,0,40,40,40,1,,
,,,,,,,,,,,,,3,5fbdc24c6d7411225e16b180,001,2021-01-24_09h57.44.803,GuessTheSound,2020.2.10,MacIntel,60,,,,,,,,,,,,,,,Initial/Doubled/Cough_A.wav,,,3,1,0.41764,0,41,41,41,1,,
,,,,,,,,,,,,,3,5fbdc24c6d7411225e16b180,001,2021-01-24_09h57.44.803,GuessTheSound,2020.2.10,MacIntel,60,,,,,,,,,,,,,,,Initial/Doubled/Clap_A.wav,,,3,1,0.35112,0,42,42,42,1,,
,,,,,,,,,,,,,1,5fbdc24c6d7411225e16b180,001,2021-01-24_09h57.44.803,GuessTheSound,2020.2.10,MacIntel,60,,,,,,,,,,,,,,,Initial/Doubled/Writing_A.wav,,,1,1,2.60023,0,43,43,43,1,,
,,,,,,,,,,,,,3,5fbdc24c6d7411225e16b180,001,2021-01-24_09h57.44.803,GuessTheSound,2020.2.10,MacIntel,60,,,,,,,,,,,,,,,Initial/Doubled/Chomp_A.wav,,,3,1,0.453005,0,44,44,44,1,,
,,,,,,,,,,,,,3,5fbdc24c6d7411225e16b180,001,2021-01-24_09h57.44.803,GuessTheSound,2020.2.10,MacIntel,60,,,,,,,,,,,,,,,Initial/Doubled/CarStart_A.wav,,,3,1,0.36036,0,45,45,45,1,,
,,,,,,,,,,,,,1,5fbdc24c6d7411225e16b180,001,2021-01-24_09h57.44.803,GuessTheSound,2020.2.10,MacIntel,60,,,,,,,,,,,,,,,Initial/NoRepeat/Fireworks.wav,,,1,1,0.46834,0,46,46,46,1,,
,,,,,,,,,,,,,3,5fbdc24c6d7411225e16b180,001,2021-01-24_09h57.44.803,GuessTheSound,2020.2.10,MacIntel,60,,,,,,,,,,,,,,,Initial/NoRepeat/Toilet_B.wav,,,3,1,0.352475,0,47,47,47,1,,
,,,,,,,,,,,,,3,5fbdc24c6d7411225e16b180,001,2021-01-24_09h57.44.803,GuessTheSound,2020.2.10,MacIntel,60,,,,,,,,,,,,,,,Initial/Repeat/Bagpipe.wav,,,3,1,0.58975,0,48,48,48,1,,
,,,,,,,,,,,,,3,5fbdc24c6d7411225e16b180,001,2021-01-24_09h57.44.803,GuessTheSound,2020.2.10,MacIntel,60,,,,,,,,,,,,,,,Initial/NoRepeat/Helicopter_A.wav,,,3,1,4.72025,0,49,49,49,1,,
,,,,,,,,,,,,,3,5fbdc24c6d7411225e16b180,001,2021-01-24_09h57.44.803,GuessTheSound,2020.2.10,MacIntel,60,,,,,,,,,,,,,,,Initial/Doubled/Dog_A.wav,,,3,1,0.38924,0,50,50,50,1,,
,,,,,,,,,,,,,3,5fbdc24c6d7411225e16b180,001,2021-01-24_09h57.44.803,GuessTheSound,2020.2.10,MacIntel,60,,,,,,,,,,,,,,,Test/Foils/Wind_B.wav,,,3,1,0.364895,0,51,51,51,1,,
,,,,,,,,,,,,,1,5fbdc24c6d7411225e16b180,001,2021-01-24_09h57.44.803,GuessTheSound,2020.2.10,MacIntel,60,,,,,,,,,,,,,,,Initial/Doubled/Chime_A.wav,,,1,1,1.826085,0,52,52,52,1,,
,,,,,,,,,,,,,2,5fbdc24c6d7411225e16b180,001,2021-01-24_09h57.44.803,GuessTheSound,2020.2.10,MacIntel,60,,,,,,,,,,,,,,,Laugh_C.wav,,,3,0,0.366805,0,53,53,53,1,,
,,,,,,,,,,,,,2,5fbdc24c6d7411225e16b180,001,2021-01-24_09h57.44.803,GuessTheSound,2020.2.10,MacIntel,60,,,,,,,,,,,,,,,Cough_D.wav,,,2,1,3.21973,0,54,54,54,1,,
,,,,,,,,,,,,,1,5fbdc24c6d7411225e16b180,001,2021-01-24_09h57.44.803,GuessTheSound,2020.2.10,MacIntel,60,,,,,,,,,,,,,,,Initial/Repeat/Buzz.wav,,,1,1,0.48656,0,55,55,55,1,,
,,,,,,,,,,,,,3,5fbdc24c6d7411225e16b180,001,2021-01-24_09h57.44.803,GuessTheSound,2020.2.10,MacIntel,60,,,,,,,,,,,,,,,Initial/Repeat/IceDrop.wav,,,3,1,0.435045,0,56,56,56,1,,
,,,,,,,,,,,,,1,5fbdc24c6d7411225e16b180,001,2021-01-24_09h57.44.803,GuessTheSound,2020.2.10,MacIntel,60,,,,,,,,,,,,,,,Initial/NoRepeat/Toilet_B.wav,,,1,1,0.87885,0,57,57,57,1,,
,,,,,,,,,,,,,2,5fbdc24c6d7411225e16b180,001,2021-01-24_09h57.44.803,GuessTheSound,2020.2.10,MacIntel,60,,,,,,,,,,,,,,,CarStart_D.wav,,,1,0,0.3175,0,58,58,58,1,,
,,,,,,,,,,,,,2,5fbdc24c6d7411225e16b180,001,2021-01-24_09h57.44.803,GuessTheSound,2020.2.10,MacIntel,60,,,,,,,,,,,,,,,Chomp_B.wav,,,2,1,0.4608,0,59,59,59,1,,
,,,,,,,,,,,,,1,5fbdc24c6d7411225e16b180,001,2021-01-24_09h57.44.803,GuessTheSound,2020.2.10,MacIntel,60,,,,,,,,,,,,,,,Initial/Doubled/Clap_A.wav,,,3,0,2.017105,0,60,60,60,1,,
,,,,,,,,,,,,,3,5fbdc24c6d7411225e16b180,001,2021-01-24_09h57.44.803,GuessTheSound,2020.2.10,MacIntel,60,,,,,,,,,,,,,,,Initial/Doubled/Bubbles_A.wav,,,1,0,0.386065,0,61,61,61,1,,
,,,,,,,,,,,,,2,5fbdc24c6d7411225e16b180,001,2021-01-24_09h57.44.803,GuessTheSound,2020.2.10,MacIntel,60,,,,,,,,,,,,,,,Dog_C.wav,,,2,1,0.66403,0,62,62,62,1,,
,,,,,,,,,,,,,2,5fbdc24c6d7411225e16b180,001,2021-01-24_09h57.44.803,GuessTheSound,2020.2.10,MacIntel,60,,,,,,,,,,,,,,,Laugh_D.wav,,,2,1,4.737945,0,63,63,63,1,,
,,,,,,,,,,,,,1,5fbdc24c6d7411225e16b180,001,2021-01-24_09h57.44.803,GuessTheSound,2020.2.10,MacIntel,60,,,,,,,,,,,,,,,Initial/NoRepeat/Helicopter_A.wav,,,1,1,0.90967,0,64,64,64,1,,
,,,,,,,,,,,,,2,5fbdc24c6d7411225e16b180,001,2021-01-24_09h57.44.803,GuessTheSound,2020.2.10,MacIntel,60,,,,,,,,,,,,,,,Cough_C.wav,,,3,0,0.371255,0,65,65,65,1,,
,,,,,,,,,,,,,3,5fbdc24c6d7411225e16b180,001,2021-01-24_09h57.44.803,GuessTheSound,2020.2.10,MacIntel,60,,,,,,,,,,,,,,,Initial/Repeat/PaperRip.wav,,,3,1,0.47125,0,66,66,66,1,,
,,,,,,,,,,,,,1,5fbdc24c6d7411225e16b180,001,2021-01-24_09h57.44.803,GuessTheSound,2020.2.10,MacIntel,60,,,,,,,,,,,,,,,Test/Foils/Wind_B.wav,,,1,1,0.34547,0,67,67,67,1,,
,,,,,,,,,,,,,2,5fbdc24c6d7411225e16b180,001,2021-01-24_09h57.44.803,GuessTheSound,2020.2.10,MacIntel,60,,,,,,,,,,,,,,,CarStart_B.wav,,,1,0,0.473805,0,68,68,68,1,,
,,,,,,,,,,,,,2,5fbdc24c6d7411225e16b180,001,2021-01-24_09h57.44.803,GuessTheSound,2020.2.10,MacIntel,60,,,,,,,,,,,,,,,Chomp_C.wav,,,2,1,3.775445,0,69,69,69,1,,
,,,,,,,,,,,,,3,5fbdc24c6d7411225e16b180,001,2021-01-24_09h57.44.803,GuessTheSound,2020.2.10,MacIntel,60,,,,,,,,,,,,,,,ManWhistle_C.wav,,,3,1,0.468345,0,70,70,70,1,,
,,,,,,,,,,,,,1,5fbdc24c6d7411225e16b180,001,2021-01-24_09h57.44.803,GuessTheSound,2020.2.10,MacIntel,60,,,,,,,,,,,,,,,Initial/Repeat/Buzz.wav,,,1,1,0.36821,0,71,71,71,1,,
,,,,,,,,,,,,,3,5fbdc24c6d7411225e16b180,001,2021-01-24_09h57.44.803,GuessTheSound,2020.2.10,MacIntel,60,,,,,,,,,,,,,,,Initial/NoRepeat/Droplet_B.wav,,,3,1,0.48553,0,72,72,72,1,,
,,,,,,,,,,,,,3,5fbdc24c6d7411225e16b180,001,2021-01-24_09h57.44.803,GuessTheSound,2020.2.10,MacIntel,60,,,,,,,,,,,,,,,Test/Lures/Guitar_B.wav,,,3,1,0.389855,0,73,73,73,1,,
,,,,,,,,,,,,,1,5fbdc24c6d7411225e16b180,001,2021-01-24_09h57.44.803,GuessTheSound,2020.2.10,MacIntel,60,,,,,,,,,,,,,,,Initial/NoRepeat/Toilet_B.wav,,,2,0,0.35669,0,74,74,74,1,,
,,,,,,,,,,,,,2,5fbdc24c6d7411225e16b180,001,2021-01-24_09h57.44.803,GuessTheSound,2020.2.10,MacIntel,60,,,,,,,,,,,,,,,Dog_D.wav,,,2,1,2.03569,0,75,75,75,1,,
,,,,,,,,,,,,,1,5fbdc24c6d7411225e16b180,001,2021-01-24_09h57.44.803,GuessTheSound,2020.2.10,MacIntel,60,,,,,,,,,,,,,,,Initial/Doubled/Clap_A.wav,,,1,1,2.110275,0,76,76,76,1,,
,,,,,,,,,,,,,1,5fbdc24c6d7411225e16b180,001,2021-01-24_09h57.44.803,GuessTheSound,2020.2.10,MacIntel,60,,,,,,,,,,,,,,,Initial/Repeat/PaperRip.wav,,,1,1,0.525345,0,77,77,77,1,,
,,,,,,,,,,,,,1,5fbdc24c6d7411225e16b180,001,2021-01-24_09h57.44.803,GuessTheSound,2020.2.10,MacIntel,60,,,,,,,,,,,,,,,Test/Foils/Wind_B.wav,,,1,1,1.08939,0,78,78,78,1,,
,,,,,,,,,,,,,1,5fbdc24c6d7411225e16b180,001,2021-01-24_09h57.44.803,GuessTheSound,2020.2.10,MacIntel,60,,,,,,,,,,,,,,,Initial/NoRepeat/Helicopter_A.wav,,,1,1,0.349945,0,79,79,79,1,,
,,,,,,,,,,,,,3,5fbdc24c6d7411225e16b180,001,2021-01-24_09h57.44.803,GuessTheSound,2020.2.10,MacIntel,60,,,,,,,,,,,,,,,Initial/NoRepeat/Goat_B.wav,,,3,1,0.382955,0,80,80,80,1,,
,,,,,,,,,,,,,2,5fbdc24c6d7411225e16b180,001,2021-01-24_09h57.44.803,GuessTheSound,2020.2.10,MacIntel,60,,,,,,,,,,,,,,,Initial/Repeat/ManWhistle.wav,,,2,1,0.3884,0,81,81,81,1,,
,,,,,,,,,,,,,3,5fbdc24c6d7411225e16b180,001,2021-01-24_09h57.44.803,GuessTheSound,2020.2.10,MacIntel,60,,,,,,,,,,,,,,,Test/Foils/Bullfrog.wav,,,3,1,0.33583,0,82,82,82,1,,
,,,,,,,,,,,,,3,5fbdc24c6d7411225e16b180,001,2021-01-24_09h57.44.803,GuessTheSound,2020.2.10,MacIntel,60,,,,,,,,,,,,,,,Initial/NoRepeat/Thunder_A.wav,,,3,1,0.3007,0,83,83,83,1,,
,,,,,,,,,,,,,3,5fbdc24c6d7411225e16b180,001,2021-01-24_09h57.44.803,GuessTheSound,2020.2.10,MacIntel,60,,,,,,,,,,,,,,,Initial/NoRepeat/Faucet_A.wav,,,3,1,0.82122,0,84,84,84,1,,
,,,,,,,,,,,,,3,5fbdc24c6d7411225e16b180,001,2021-01-24_09h57.44.803,GuessTheSound,2020.2.10,MacIntel,60,,,,,,,,,,,,,,,Initial/Repeat/Phone_A.wav,,,3,1,0.321365,0,85,85,85,1,,
,,,,,,,,,,,,,1,5fbdc24c6d7411225e16b180,001,2021-01-24_09h57.44.803,GuessTheSound,2020.2.10,MacIntel,60,,,,,,,,,,,,,,,Initial/Repeat/PaperRip.wav,,,1,1,0.75221,0,86,86,86,1,,
,,,,,,,,,,,,,3,5fbdc24c6d7411225e16b180,001,2021-01-24_09h57.44.803,GuessTheSound,2020.2.10,MacIntel,60,,,,,,,,,,,,,,,Initial/Doubled/Growl_A.wav,,,3,1,0.34201,0,87,87,87,1,,
,,,,,,,,,,,,,3,5fbdc24c6d7411225e16b180,001,2021-01-24_09h57.44.803,GuessTheSound,2020.2.10,MacIntel,60,,,,,,,,,,,,,,,Initial/Repeat/Howl.wav,,,3,1,0.321735,0,88,88,88,1,,
,,,,,,,,,,,,,3,5fbdc24c6d7411225e16b180,001,2021-01-24_09h57.44.803,GuessTheSound,2020.2.10,MacIntel,60,,,,,,,,,,,,,,,Initial/Repeat/Whistle_A.wav,,,3,1,2.10121,0,89,89,89,1,,
,,,,,,,,,,,,,2,5fbdc24c6d7411225e16b180,001,2021-01-24_09h57.44.803,GuessTheSound,2020.2.10,MacIntel,60,,,,,,,,,,,,,,,Goat_A.wav,,,3,0,0.470045,0,90,90,90,1,,
,,,,,,,,,,,,,2,5fbdc24c6d7411225e16b180,001,2021-01-24_09h57.44.803,GuessTheSound,2020.2.10,MacIntel,60,,,,,,,,,,,,,,,ManWhistle_D.wav,,,2,1,0.406555,0,91,91,91,1,,
,,,,,,,,,,,,,3,5fbdc24c6d7411225e16b180,001,2021-01-24_09h57.44.803,GuessTheSound,2020.2.10,MacIntel,60,,,,,,,,,,,,,,,Initial/Repeat/Cup.wav,,,3,1,0.367915,0,92,92,92,1,,
,,,,,,,,,,,,,2,5fbdc24c6d7411225e16b180,001,2021-01-24_09h57.44.803,GuessTheSound,2020.2.10,MacIntel,60,,,,,,,,,,,,,,,Phone_C.wav,,,1,0,3.10085,0,93,93,93,1,,
,,,,,,,,,,,,,2,5fbdc24c6d7411225e16b180,001,2021-01-24_09h57.44.803,GuessTheSound,2020.2.10,MacIntel,60,,,,,,,,,,,,,,,Growl_B.wav,,,3,0,0.344585,0,94,94,94,1,,
,,,,,,,,,,,,,1,5fbdc24c6d7411225e16b180,001,2021-01-24_09h57.44.803,GuessTheSound,2020.2.10,MacIntel,60,,,,,,,,,,,,,,,Test/Foils/Bullfrog.wav,,,2,0,0.44716,0,95,95,95,1,,
,,,,,,,,,,,,,1,5fbdc24c6d7411225e16b180,001,2021-01-24_09h57.44.803,GuessTheSound,2020.2.10,MacIntel,60,,,,,,,,,,,,,,,Initial/NoRepeat/Thunder_A.wav,,,1,1,2.968665,0,96,96,96,1,,
,,,,,,,,,,,,,1,5fbdc24c6d7411225e16b180,001,2021-01-24_09h57.44.803,GuessTheSound,2020.2.10,MacIntel,60,,,,,,,,,,,,,,,Initial/Repeat/Howl.wav,,,1,1,0.37063,0,97,97,97,1,,
,,,,,,,,,,,,,2,5fbdc24c6d7411225e16b180,001,2021-01-24_09h57.44.803,GuessTheSound,2020.2.10,MacIntel,60,,,,,,,,,,,,,,,Goat_C.wav,,,2,1,0.37892,0,98,98,98,1,,
,,,,,,,,,,,,,1,5fbdc24c6d7411225e16b180,001,2021-01-24_09h57.44.803,GuessTheSound,2020.2.10,MacIntel,60,,,,,,,,,,,,,,,Initial/NoRepeat/Faucet_A.wav,,,2,0,2.703,0,99,99,99,1,,
,,,,,,,,,,,,,2,5fbdc24c6d7411225e16b180,001,2021-01-24_09h57.44.803,GuessTheSound,2020.2.10,MacIntel,60,,,,,,,,,,,,,,,Whistle_B.wav,,,2,1,0.31992,0,100,100,100,1,,
,,,,,,,,,,,,,2,5fbdc24c6d7411225e16b180,001,2021-01-24_09h57.44.803,GuessTheSound,2020.2.10,MacIntel,60,,,,,,,,,,,,,,,Growl_D.wav,,,1,0,0.32488,0,101,101,101,1,,
,,,,,,,,,,,,,3,5fbdc24c6d7411225e16b180,001,2021-01-24_09h57.44.803,GuessTheSound,2020.2.10,MacIntel,60,,,,,,,,,,,,,,,Initial/NoRepeat/Footsteps_B.wav,,,1,0,0.401655,0,102,102,102,1,,
,,,,,,,,,,,,,2,5fbdc24c6d7411225e16b180,001,2021-01-24_09h57.44.803,GuessTheSound,2020.2.10,MacIntel,60,,,,,,,,,,,,,,,Phone_D.wav,,,2,1,0.921135,0,103,103,103,1,,
,,,,,,,,,,,,,1,5fbdc24c6d7411225e16b180,001,2021-01-24_09h57.44.803,GuessTheSound,2020.2.10,MacIntel,60,,,,,,,,,,,,,,,Test/Foils/Bullfrog.wav,,,1,1,0.37775,0,104,104,104,1,,
,,,,,,,,,,,,,1,5fbdc24c6d7411225e16b180,001,2021-01-24_09h57.44.803,GuessTheSound,2020.2.10,MacIntel,60,,,,,,,,,,,,,,,Initial/Repeat/Howl.wav,,,1,1,0.307945,0,105,105,105,1,,
,,,,,,,,,,,,,1,5fbdc24c6d7411225e16b180,001,2021-01-24_09h57.44.803,GuessTheSound,2020.2.10,MacIntel,60,,,,,,,,,,,,,,,Initial/NoRepeat/Thunder_A.wav,,,1,1,0.35974,0,106,106,106,1,,
,,,,,,,,,,,,,2,5fbdc24c6d7411225e16b180,001,2021-01-24_09h57.44.803,GuessTheSound,2020.2.10,MacIntel,60,,,,,,,,,,,,,,,Whistle_C.wav,,,2,1,1.94589,0,107,107,107,1,,
,,,,,,,,,,,,,1,5fbdc24c6d7411225e16b180,001,2021-01-24_09h57.44.803,GuessTheSound,2020.2.10,MacIntel,60,,,,,,,,,,,,,,,Initial/NoRepeat/Faucet_A.wav,,,1,1,3.10756,0,108,108,108,1,,
,,,,,,,,,,,,,,5fbdc24c6d7411225e16b180,001,2021-01-24_09h57.44.803,GuessTheSound,2020.2.10,MacIntel,60,,,,,,,,,,,,,,,,,,,,,,,,,,space,14.59087
